#timestamp [ns],w_RS_S_x [rad s^-1],w_RS_S_y [rad s^-1],w_RS_S_z [rad s^-1],a_RS_S_x [m s^-2],a_RS_S_y [m s^-2],a_RS_S_z [m s^-2]
1520616230432891234,0.0543854708,-0.1592102574,-0.0503133086,-0.0888827118,-0.6067534513,10.1088937578
1520616230437906234,0.0588860996,-0.1775729948,-0.0477563051,-0.0708441961,-0.5935643116,10.0796517204
1520616230442922234,0.0633814122,-0.1970888869,-0.0498074741,-0.0804647378,-0.5791738772,10.0309212827
1520616230447938234,0.0706494958,-0.2131194650,-0.0472378198,-0.0251466230,-0.5683859217,10.0233994623
1520616230452952234,0.0754086840,-0.2256522280,-0.0454484589,0.0145381115,-0.4880466041,10.0264212816
1520616230457969234,0.0799134056,-0.2405161657,-0.0436764160,0.1047306900,-0.4988458925,9.9535010012
1520616230462985234,0.0851696049,-0.2568352738,-0.0424579805,0.1299846119,-0.4652719275,9.9462495898
1520616230468001234,0.0884157232,-0.2722781023,-0.0423113255,0.1816950236,-0.4712716570,9.9411035433
1520616230473015234,0.0919111606,-0.2891777549,-0.0421762527,0.2105566487,-0.5012524154,10.0036076289
1520616230478033234,0.0966697411,-0.2990742170,-0.0455072561,0.2201771904,-0.4940583221,9.9895612450
1520616230483048234,0.0966526795,-0.3083839533,-0.0509893127,0.2273925967,-0.4736734969,9.9394989458
1520616230488064234,0.0953847966,-0.3144933226,-0.0548213065,0.2213797581,-0.4628807648,9.9360605152
1520616230493080234,0.0951279622,-0.3156458474,-0.0596995582,0.2803055761,-0.4365042648,9.8982726354
1520616230498095234,0.0943773275,-0.3109737923,-0.0634502312,0.3248005814,-0.3909403941,9.9001194014
1520616230503110234,0.0941400167,-0.3016539565,-0.0617553504,0.3248005814,-0.3693558665,9.8257211402
1520616230508127234,0.0936525087,-0.2908743827,-0.0611310710,0.3428390971,-0.3897426586,9.8255654431
1520616230513143234,0.0868830592,-0.2792209315,-0.0613000919,0.4089803213,-0.3717607035,9.8783627468
1520616230518158234,0.0821308141,-0.2646623170,-0.0579335192,0.4426522173,-0.3669667643,9.8175988423
1520616230523173234,0.0781318499,-0.2503940632,-0.0548411156,0.5039831707,-0.3022179581,9.7855608533
1520616230528188234,0.0736355689,-0.2317530531,-0.0525260699,0.5436679052,-0.2266752022,9.7432637357
1520616230533204234,0.0653702366,-0.2160419337,-0.0448153364,0.6254425097,-0.1955039201,9.7052487825
1520616230538219234,0.0568576514,-0.1980027503,-0.0360041678,0.6326579159,-0.1895087799,9.7295777285
1520616230543236234,0.0488470484,-0.1802540261,-0.0274667017,0.6579118379,-0.1571339554,9.7409217897
1520616230548252234,0.0433481948,-0.1660125865,-0.0146318455,0.6843683276,-0.1331532074,9.7081008610
1520616230553267234,0.0385978235,-0.1567287591,-0.0002129065,0.6903811662,-0.0959803226,9.7835454432
1520616230558283234,0.0333474891,-0.1474538698,0.0174535166,0.6350630514,-0.1259545248,9.8271124356
1520616230563299234,0.0283448938,-0.1393378643,0.0326756676,0.6543041348,-0.1379474276,9.9489619633
1520616230568315234,0.0220861180,-0.1288818053,0.0444008403,0.5508833115,-0.1259479686,9.9464704729
1520616230573330234,0.0160791272,-0.1172564675,0.0547817091,0.5761372334,-0.1379413397,9.9671549512
1520616230578346234,0.0125883355,-0.1035919103,0.0657145641,0.5496807438,-0.1331427175,10.0034342477
1520616230583363234,0.0060720235,-0.0939933494,0.0712109786,0.5400602021,-0.2158826574,9.9710685419
1520616230588377234,0.0000538242,-0.0867212972,0.0750653997,0.5328447958,-0.2314709210,9.9723161176
1520616230593394234,-0.0059645515,-0.0797413579,0.0791881435,0.4967677644,-0.2782345877,9.9843343130
1520616230598408234,-0.0097261578,-0.0736223028,0.0787007374,0.4739189778,-0.2938216337,9.9880583424
1520616230603424234,-0.0167528847,-0.0645833981,0.0755361705,0.4125880245,-0.3585704399,9.9538541259
1520616230608441234,-0.0217733021,-0.0546520697,0.0658814376,0.3344211231,-0.3669583349,9.9639202916
1520616230613456234,-0.0283001481,-0.0435550656,0.0559678515,0.2995466595,-0.4293109208,9.9364290890
1520616230618472234,-0.0363314862,-0.0295426216,0.0452676589,0.2430259770,-0.4952592421,9.9207735249
1520616230623486234,-0.0443672621,-0.0166862461,0.0310414773,0.2297977321,-0.5935877265,9.9535381971
1520616230628502234,-0.0529132844,-0.0070243709,0.0127335868,0.2334054352,-0.6163716756,9.9419038598
1520616230633519234,-0.0614524499,0.0052490386,-0.0014961075,0.2261900290,-0.6571418880,9.9315545521
1520616230638535234,-0.0672311977,0.0154874816,-0.0170992268,0.2538490864,-0.6571440422,9.9022317370
1520616230643550234,-0.0770321813,0.0236802870,-0.0310871648,0.2658747635,-0.6487509958,9.9276736680
1520616230648566234,-0.0870889996,0.0269121727,-0.0424069696,0.2766978729,-0.5899939580,9.8856738425
1520616230653580234,-0.0923696897,0.0307265128,-0.0529195582,0.2454311124,-0.5815975399,9.8743485491
1520616230658596234,-0.0966430282,0.0362902823,-0.0636912211,0.2273925967,-0.5576133265,9.8582307228
1520616230663613234,-0.1004114834,0.0427247601,-0.0731044188,0.2779004406,-0.5132490646,9.8146965186
1520616230668628234,-0.1006617551,0.0491606164,-0.0825241505,0.2995466595,-0.4293109208,9.7946475266
1520616230673644234,-0.1014070619,0.0593762618,-0.0889380439,0.3608776128,-0.3549689912,9.7463301675
1520616230678660234,-0.0993967967,0.0617190521,-0.0929821814,0.4222085662,-0.3549737679,9.7445710657
1520616230683676234,-0.0966288597,0.0637569131,-0.0918895702,0.4330316756,-0.3333900832,9.7525796798
1520616230688692234,-0.0958729912,0.0622871741,-0.0870322597,0.4799318164,-0.3681688082,9.6731313045
1520616230693707234,-0.0928574132,0.0593613985,-0.0821902651,0.5111985769,-0.3705695242,9.7065314864
1520616230698723234,-0.0910992152,0.0535110874,-0.0735805252,0.5893654783,-0.3501902249,9.6894807636
1520616230703738234,-0.0885857134,0.0485344967,-0.0646949703,0.6242399420,-0.3405998177,9.6600783634
1520616230708754234,-0.0840587474,0.0435484957,-0.0520255066,0.6555067025,-0.3310091294,9.6551161014
1520616230713770234,-0.0800427804,0.0330289055,-0.0404795318,0.7048119787,-0.3262164078,9.6941444112
1520616230718786234,-0.0720080120,0.0210539679,-0.0289521399,0.7432941455,-0.2950417539,9.6635237037
1520616230723801234,-0.0642193989,0.0114034522,-0.0149715835,0.7577249581,-0.2806531928,9.6703420747
1520616230728817234,-0.0554291502,0.0005943481,-0.0034366995,0.7769660415,-0.2734598488,9.6562020503
1520616230733833234,-0.0443791957,-0.0131342710,0.0105066663,0.7432941455,-0.2482752774,9.5821280227
1520616230738849234,-0.0340771121,-0.0230781004,0.0255625159,0.7637377967,-0.2087052357,9.5737554409
1520616230743864234,-0.0200079179,-0.0333052816,0.0381742285,0.7913968541,-0.2051099686,9.5444291177
1520616230748880234,-0.0044290802,-0.0411964253,0.0491776501,0.7529146872,-0.1931155672,9.5296841147
1520616230753895234,0.0121536747,-0.0508391245,0.0615185958,0.7565223904,-0.1835227248,9.4901267504
1520616230758912234,0.0282306211,-0.0625202554,0.0733038215,0.8238661823,-0.1883245315,9.4418280425
1520616230763927234,0.0480818839,-0.0727524564,0.0886102584,0.8407021303,-0.1811310002,9.3940092535
1520616230768943234,0.0686874861,-0.0815223404,0.1020325893,0.8815894325,-0.2027187122,9.3273901243
1520616230773958234,0.0902967429,-0.0917502101,0.1159830297,0.8551329428,-0.1715390007,9.2706721790
1520616230778975234,0.1141769296,-0.0946903952,0.1291732091,0.8178533437,-0.1475532888,9.2675252171
1520616230783990234,0.1405738447,-0.0947150221,0.1421104061,0.8322841563,-0.1703380807,9.2860012771
1520616230789006234,0.1679761746,-0.0947399836,0.1553162822,0.8214610469,-0.1979174675,9.3000792449
1520616230794022234,0.1941265855,-0.0915609360,0.1688194917,0.8214610469,-0.1991166079,9.2779996791
1520616230799037234,0.2212747116,-0.0942106419,0.1828174644,0.8094353698,-0.2230984798,9.2723293967
1520616230804052234,0.2451556471,-0.0962752166,0.1954732212,0.7974096926,-0.2422837900,9.3050051874
1520616230809068234,0.2700422640,-0.0971702172,0.2067832740,0.7312684684,-0.2590666046,9.3196110637
1520616230814084234,0.2949279636,-0.0963059841,0.2140484768,0.6314553482,-0.2314786011,9.3902843258
1520616230819099234,0.3160475328,-0.0898930817,0.2162225471,0.5809475043,-0.2050935781,9.4616409939
1520616230824116234,0.3346534158,-0.0817226587,0.2146269806,0.5148062801,-0.2266729544,9.5180887299
1520616230829131234,0.3509965587,-0.0723788424,0.2097979562,0.4655010038,-0.1811017782,9.5940635594
1520616230834147234,0.3635684119,-0.0656647912,0.2071202920,0.4955651967,-0.1918963836,9.7006987008
1520616230839162234,0.3733720222,-0.0604021898,0.2020017333,0.4763241133,-0.1954923063,9.7613209754
1520616230844178234,0.3781396707,-0.0618404878,0.1957591946,0.5580987177,-0.2170832028,9.7965725422
1520616230849194234,0.3826491086,-0.0699880128,0.1921714505,0.6001885877,-0.2122899192,9.8891297042
1520616230854209234,0.3838943434,-0.0769749217,0.1899513957,0.5857577751,-0.1943016889,9.9694405576
1520616230859225234,0.3793589993,-0.0851325469,0.1888153667,0.5869603429,-0.1871069400,10.0252047464
1520616230864242234,0.3748173670,-0.0967816875,0.1857588395,0.6049988586,-0.1715195194,10.0354732647
1520616230869256234,0.3660142553,-0.1014429153,0.1841163301,0.5905680460,-0.2050943273,10.0647000657
1520616230874271234,0.3567036180,-0.1098930673,0.1827163999,0.5496807438,-0.2590524620,10.1046635523
1520616230879288234,0.3436257447,-0.1157178648,0.1797202029,0.5316422281,-0.2770381634,10.1350724111
1520616230884303234,0.3282917685,-0.1177570064,0.1772981984,0.4715138424,-0.2530506719,10.0693920717
1520616230889319234,0.3101898161,-0.1200776890,0.1708209163,0.4366393787,-0.2626410792,10.0639301533
1520616230894335234,0.2930963601,-0.1194819473,0.1635523604,0.4125880245,-0.2662366273,10.0967077932
1520616230899351234,0.2739927368,-0.1174242432,0.1541342866,0.4041700505,-0.2914179205,10.0689228298
1520616230904366234,0.2531331934,-0.1115726735,0.1423134670,0.4137905922,-0.3225963208,10.0374817054
1520616230909382234,0.2290087881,-0.1045583024,0.1310486988,0.4618933007,-0.3345914715,9.9591615516
1520616230914398234,0.2083952196,-0.1027867461,0.1194668351,0.5027806029,-0.3130101283,9.8820410306
1520616230919413234,0.1865324999,-0.0972349675,0.1106216641,0.5328447958,-0.3094150485,9.7597197810
1520616230924430234,0.1709554617,-0.0896424927,0.1023214784,0.4919574935,-0.2650436684,9.7089401534
1520616230929445234,0.1506057726,-0.0794243287,0.0921563469,0.5280345249,-0.2350679676,9.7132083440
1520616230934461234,0.1312691510,-0.0645487175,0.0839187392,0.5424653375,-0.2062897214,9.7525527136
1520616230939476234,0.1141979590,-0.0467576466,0.0754286159,0.5532884469,-0.1559266665,9.7547225438
1520616230944492234,0.0953674987,-0.0292593777,0.0672100825,0.6049988586,-0.1415410088,9.7669887778
1520616230949507234,0.0772922953,-0.0120580255,0.0611522930,0.5893654783,-0.1055655785,9.7612951436
1520616230954523234,0.0617237448,0.0004821588,0.0550542669,0.5905680460,-0.0803837233,9.7647453143
1520616230959539234,0.0436454560,0.0133032736,0.0524802278,0.6254425097,-0.0659967544,9.8271476091
1520616230964555234,0.0263179391,0.0235007660,0.0504258725,0.6110116971,-0.1187578091,9.8064209295
1520616230969570234,0.0094851046,0.0293342434,0.0459023244,0.6049988586,-0.1607272556,9.8960054661
1520616230974587234,-0.0103684203,0.0310856990,0.0418943456,0.5556935823,-0.1523294326,9.9510979539
1520616230979602234,-0.0264540936,0.0305024563,0.0397554026,0.4763241133,-0.1631155148,9.9658267391
1520616230984618234,-0.0485723423,0.0305069039,0.0349266481,0.4390445142,-0.1655108922,9.9406247676
1520616230989633234,-0.0664131831,0.0360566157,0.0274267390,0.4486650559,-0.1631133607,9.8905565984
1520616230994649234,-0.0855005366,0.0468412870,0.0234862757,0.5196165509,-0.1787077121,9.8143418445
1520616230999664234,-0.1005708058,0.0544201186,0.0203255285,0.5027806029,-0.1835029625,9.7494303312
1520616231004679234,-0.1118710242,0.0611204459,0.0193154785,0.4847420873,-0.1954929619,9.6833753950
1520616231009696234,-0.1221671449,0.0678248093,0.0169508320,0.5027806029,-0.2674427922,9.6484056609
1520616231014712234,-0.1332187029,0.0730704977,0.0151175621,0.5388576343,-0.2422636531,9.6724349761
1520616231019727234,-0.1452821405,0.0745328925,0.0113634377,0.5280345249,-0.2410636697,9.6771877281
1520616231024743234,-0.1528208740,0.0789196460,0.0043765924,0.5833526397,-0.2446653994,9.6940849629
1520616231029759234,-0.1603557812,0.0856352904,-0.0017808306,0.5797449366,-0.2446651184,9.7289843967
1520616231034776234,-0.1668919618,0.0871042218,-0.0071684982,0.5556935823,-0.2614512111,9.7664234751
1520616231039790234,-0.1721759646,0.0836120958,-0.0096202871,0.5220216864,-0.2446606227,9.7899777250
1520616231044807234,-0.1782163260,0.0789570500,-0.0131617518,0.5472756083,-0.2734419597,9.8850557872
1520616231049822234,-0.1817487132,0.0710999443,-0.0175439753,0.5532884469,-0.2878321131,9.9175513247
1520616231054837234,-0.1872899112,0.0629441105,-0.0194897751,0.5280345249,-0.2674447590,9.9096422444
1520616231059853234,-0.1860557555,0.0507253919,-0.0266196715,0.4979703321,-0.2986200686,9.8948574023
1520616231064870234,-0.1853168586,0.0408237123,-0.0285904779,0.4751215456,-0.3345925017,9.9171956136
1520616231069884234,-0.1855890493,0.0277215082,-0.0324776925,0.3644853160,-0.3837486424,9.9566711722
1520616231074901234,-0.1815906065,0.0155038725,-0.0396127230,0.2634696281,-0.4221132685,9.9483946642
1520616231079916234,-0.1738250962,0.0032957264,-0.0497307591,0.2466336801,-0.4269085189,9.9218339014
1520616231084932234,-0.1685740640,-0.0077376681,-0.0636228783,0.2129617841,-0.4388973007,9.8942818815
1520616231089947234,-0.1592948606,-0.0138181356,-0.0766730348,0.2382157061,-0.4209121612,9.8545056407
1520616231094963234,-0.1467487331,-0.0216536431,-0.0867665924,0.2742927375,-0.4005295838,9.7518659423
1520616231099982234,-0.1329500712,-0.0324025036,-0.0968847145,0.2899261178,-0.3789462737,9.6959098187
1520616231104993234,-0.1176377709,-0.0411212797,-0.1032024328,0.2803055761,-0.3249842054,9.6471407928
1520616231110009234,-0.0985533459,-0.0469203631,-0.1111281965,0.3680930191,-0.2962116724,9.6125560848
1520616231115027234,-0.0782052170,-0.0495231941,-0.1155147432,0.4149931599,-0.2482497082,9.5911342229
1520616231120041234,-0.0535793392,-0.0503869706,-0.1158376972,0.4161957276,-0.1763013765,9.5341073037
1520616231125058234,-0.0249316647,-0.0492036527,-0.1183169244,0.5087934415,-0.1547240607,9.4855370642
1520616231130073234,-0.0005524714,-0.0486193462,-0.1153817455,0.6086065617,-0.1403421494,9.4589843454
1520616231135089234,0.0235703187,-0.0521159784,-0.1119361313,0.6555067025,-0.1343501000,9.4213333950
1520616231140106234,0.0534790467,-0.0535815809,-0.1044275017,0.6903811662,-0.1499416416,9.4221712937
1520616231145120234,0.0788674302,-0.0533028337,-0.0960854949,0.7060145464,-0.1007781019,9.4219711851
1520616231150136234,0.1024948283,-0.0550673811,-0.0866735991,0.6807606245,-0.0648019223,9.3942904562
1520616231155151234,0.1281290143,-0.0576972817,-0.0802481111,0.6819631922,-0.0612045947,9.4163559782
1520616231160168234,0.1542698437,-0.0579988230,-0.0727235883,0.6891785985,-0.0360232078,9.4150990478
1520616231165183234,0.1763858891,-0.0609229434,-0.0657526975,0.6639246765,-0.0516100664,9.4688186773
1520616231170198234,0.1962398923,-0.0644321758,-0.0582409606,0.6639246765,-0.0396186622,9.4874012872
1520616231175215234,0.2148379736,-0.0673584030,-0.0509929898,0.6386707545,-0.0851840314,9.4818808085
1520616231180230234,0.2321783259,-0.0723299132,-0.0418644257,0.6037962908,-0.1355452130,9.5682680200
1520616231185246234,0.2477570852,-0.0767084170,-0.0367863368,0.5400602021,-0.1355402491,9.5956176989
1520616231190262234,0.2640934379,-0.0778792104,-0.0324968318,0.5556935823,-0.0528007774,9.5686555378
1520616231195277234,0.2786685857,-0.0810925700,-0.0274079837,0.5881629106,0.0059545745,9.5775793553
1520616231200293234,0.2917427071,-0.0825727817,-0.0168920788,0.5412627698,0.0587204059,9.6000651367
1520616231205308234,0.3060680458,-0.0869619759,-0.0080240137,0.5556935823,0.0839012308,9.6289537188
1520616231210324234,0.3196413816,-0.0893088600,-0.0002211705,0.5689218272,0.0958916048,9.6567047247
1520616231215340234,0.3317023454,-0.0963243148,0.0097132709,0.6049988586,0.1150750418,9.6760913108
1520616231220355234,0.3422575430,-0.1007128005,0.0177766991,0.5400602021,0.1714396993,9.7103705995
1520616231225371234,0.3508063528,-0.1024810699,0.0264049607,0.5220216864,0.2122118786,9.7372357288
1520616231230388234,0.3581010011,-0.1022086831,0.0345100257,0.5304396603,0.2421897336,9.7289895522
1520616231235403234,0.3661499457,-0.1001811379,0.0401921160,0.5689218272,0.2529790003,9.7344151861
1520616231240419234,0.3719404940,-0.0981654053,0.0499365952,0.5857577751,0.2793587784,9.7342255899
1520616231245434234,0.3729589168,-0.0941111232,0.0594349578,0.6074039940,0.2733613904,9.7619122005
1520616231250450234,0.3749773442,-0.0935516047,0.0683636848,0.6254425097,0.2949445131,9.7861205996
1520616231255464234,0.3714644688,-0.0953267853,0.0778259868,0.6470887285,0.3069342314,9.8196003898
1520616231260483234,0.3702091076,-0.0985507182,0.0845675138,0.7132299527,0.3021325184,9.8666091912
1520616231265498234,0.3646814037,-0.1014827549,0.0905075606,0.7360787393,0.3045290197,9.8931137674
1520616231270512234,0.3523716697,-0.1012078496,0.0948613875,0.7529146872,0.3512941850,9.9393900505
1520616231275529234,0.3410688482,-0.0991820581,0.0984150483,0.7661429321,0.3776742441,9.9775863199
1520616231280544234,0.3285111163,-0.0959912206,0.1019799350,0.7697506352,0.3584877163,10.0101099449
1520616231285560234,0.3099220833,-0.0919242220,0.1039394170,0.7962071249,0.3620830771,9.9866060466
1520616231290576234,0.2900851731,-0.0837885303,0.1097199983,0.8202584792,0.3968562762,9.9026636699
1520616231295591234,0.2682416515,-0.0744953724,0.1182186648,0.8130430729,0.4736018252,9.8980104867
1520616231300608234,0.2471537005,-0.0631585853,0.1253787631,0.8731714585,0.4807919848,9.8381488762
1520616231305622234,0.2275725270,-0.0538667266,0.1346848667,0.8551329428,0.5047761981,9.7767074357
1520616231310639234,0.2067435627,-0.0410918576,0.1488898071,0.7998148280,0.4867934001,9.7598312491
1520616231315654234,0.1856664751,-0.0230590539,0.1582654036,0.7408890101,0.4855988490,9.7034609124
1520616231320669234,0.1666025539,-0.0015222922,0.1652290303,0.6867734630,0.4844039233,9.7295559763
1520616231325686234,0.1462763833,0.0188622792,0.1670457262,0.6783554890,0.3836767834,9.7646004548
1520616231330702234,0.1229260528,0.0348836424,0.1655881258,0.6555067025,0.3021370141,9.8160366999
1520616231335717234,0.0990746654,0.0523631882,0.1636014825,0.6506964316,0.3021373888,9.9590272265
1520616231340733234,0.0721917282,0.0605281742,0.1574911126,0.6627221088,0.2661622395,9.9345402331
1520616231345748234,0.0465644069,0.0686965661,0.1502962256,0.7024068433,0.1762236169,10.0028081600
1520616231350763234,0.0199242338,0.0707433038,0.1438681584,0.7276607653,0.1750225096,10.0444007055
1520616231355780234,-0.0089767036,0.0739568789,0.1366415463,0.6579118379,0.1618373973,10.0206874384
1520616231360796234,-0.0351145849,0.0765902248,0.1288642623,0.6194296711,0.1270653221,10.0036637518
1520616231365812234,-0.0625121280,0.0768920021,0.1210715273,0.5689218272,0.1450563622,10.0052999680
1520616231370826234,-0.0909204452,0.0763338007,0.1078630719,0.5352499312,0.1306692996,10.0579382196
1520616231375843234,-0.1178199500,0.0792851877,0.0900792130,0.4811343841,0.0935001611,10.1433377053
1520616231380858234,-0.1437150946,0.0819470409,0.0717501724,0.4149931599,0.0971027337,10.1660587105
1520616231385873234,-0.1673502238,0.0825664462,0.0547540991,0.4186008630,0.0791153464,10.1904461585
1520616231390890234,-0.1894767289,0.0820128915,0.0407223380,0.4318291079,0.0671229119,10.2205448391
1520616231395906234,-0.2151358015,0.0718466396,0.0250004738,0.4270188370,0.0179585292,10.3380161416
1520616231400921234,-0.2380376321,0.0543873879,0.0127349952,0.5087934415,0.0059607561,10.3918526570
1520616231405936234,-0.2584245455,0.0357519278,0.0047846913,0.5532884469,0.0383340821,10.3297943682
1520616231410952234,-0.2750375308,0.0212009700,-0.0044942197,0.5099960092,0.0899004920,10.2395182402
1520616231415968234,-0.2820936764,0.0139463794,-0.0167112939,0.4835395195,0.1618509780,10.1095454682
1520616231420983234,-0.2909018297,0.0122288626,-0.0294239542,0.4979703321,0.1906292242,10.0024596996
1520616231426000234,-0.2929179676,0.0140033341,-0.0394170800,0.5148062801,0.2050175980,9.9081481364
1520616231431016234,-0.2896482993,0.0204347412,-0.0466789787,0.5436679052,0.2673706522,9.7846191503
1520616231436030234,-0.2836173351,0.0248282681,-0.0542321189,0.5544910146,0.2697680901,9.6636484949
1520616231441047234,-0.2760799815,0.0298124392,-0.0644890722,0.5340473635,0.2445877335,9.6138998469
1520616231446063234,-0.2619995748,0.0417931271,-0.0749753521,0.5713269626,0.2194028811,9.5810215156
1520616231451077234,-0.2489277937,0.0517359148,-0.0862869645,0.5665166917,0.1918230260,9.5648252152
1520616231456094234,-0.2351025160,0.0599241349,-0.0951784024,0.5845552074,0.1786310764,9.6169589801
1520616231461109234,-0.2185086859,0.0704408720,-0.1027044602,0.6398733222,0.1558431000,9.5931998858
1520616231466125234,-0.2021762300,0.0733807845,-0.1100173055,0.6783554890,0.1222641711,9.6102902248
1520616231471140234,-0.1845916356,0.0731159595,-0.1173569384,0.6591144056,0.0802957548,9.6174912963
1520616231476157234,-0.1682626140,0.0725548871,-0.1230731854,0.6302527805,0.0299341049,9.6619828002
1520616231481173234,-0.1539487816,0.0673257756,-0.1269274467,0.6098091294,0.0191434333,9.7481909628
1520616231486187234,-0.1388875175,0.0583133312,-0.1324352837,0.5737320980,-0.0552004632,9.8415861299
1520616231491204234,-0.1271016259,0.0443518974,-0.1401392129,0.5484781760,-0.1031641133,9.8802294601
1520616231496220234,-0.1125521097,0.0289302534,-0.1462361160,0.5556935823,-0.0851775689,9.9068710007
1520616231501234234,-0.1000066527,0.0167064956,-0.1498699184,0.4907549258,-0.0935664942,9.8877548119
1520616231506251234,-0.0897249473,0.0050740904,-0.1570121708,0.4630958684,-0.0755772337,9.9182222309
1520616231511266234,-0.0759179388,-0.0042389720,-0.1592733465,0.5027806029,-0.0420043926,9.9073439269
1520616231516283234,-0.0613542268,-0.0147318457,-0.1561338967,0.4775266810,0.0035649104,9.8331680852
1520616231521297234,-0.0513204919,-0.0295950743,-0.1538310300,0.5244268218,0.0311414874,9.8396575569
1520616231526313234,-0.0392710031,-0.0421337233,-0.1488086533,0.6326579159,0.0898909387,9.8490060998
1520616231531330234,-0.0257127139,-0.0555532194,-0.1410902873,0.6074039940,0.1378585225,9.7934222226
1520616231536345234,-0.0139039271,-0.0625658589,-0.1322375628,0.6062014263,0.1846250927,9.7422539894
1520616231541361234,-0.0003366641,-0.0698684653,-0.1236608743,0.6206322388,0.1822256879,9.7304944279
1520616231546377234,0.0137414256,-0.0704661169,-0.1161161719,0.6314553482,0.1882205471,9.7245725159
1520616231551392234,0.0210362464,-0.0713650956,-0.1058556321,0.6302527805,0.2086060280,9.6838893038
1520616231556408234,0.0320982208,-0.0728402676,-0.0975003606,0.6182271034,0.1954164199,9.6793706413
1520616231561424234,0.0421590459,-0.0719876709,-0.0880432539,0.5953783168,0.1906216377,9.6563548356
1520616231566439234,0.0517167048,-0.0702552900,-0.0807429117,0.5821500720,0.1750338425,9.6832281036
1520616231571454234,0.0592663057,-0.0664825483,-0.0739643659,0.4991728998,0.1822351476,9.6793801606
1520616231576470234,0.0670653589,-0.0635816764,-0.0680045937,0.4125880245,0.1234840103,9.6872530860
1520616231581486234,0.0746120627,-0.0595066237,-0.0652820133,0.3825238317,0.0923087008,9.7735747679
1520616231586501234,0.0773770084,-0.0595077259,-0.0644755095,0.4125880245,0.0731201126,9.8186244651
1520616231591518234,0.0806443676,-0.0627277013,-0.0585540212,0.4474624882,0.0587277113,9.7845968759
1520616231596533234,0.0876803270,-0.0674067646,-0.0512979196,0.4510701913,0.0659222729,9.7438797063
1520616231601548234,0.0911933161,-0.0723640222,-0.0494484249,0.4835395195,0.1126862206,9.6923837315
1520616231606565234,0.0929557872,-0.0729599423,-0.0443157661,0.4955651967,0.1198801265,9.6852868012
1520616231611581234,0.0972366177,-0.0683041288,-0.0413121262,0.4751215456,0.1150851571,9.7621919655
1520616231616595234,0.1025196953,-0.0659797262,-0.0380575919,0.5087934415,0.1114851133,9.7432734287
1520616231621611234,0.1022738889,-0.0645345569,-0.0337172755,0.5496807438,0.1414604395,9.7788726859
1520616231626628234,0.1055423928,-0.0665875373,-0.0283279865,0.5665166917,0.1270694431,9.7868578548
1520616231631643234,0.1075515446,-0.0700950189,-0.0240296630,0.5508833115,0.1222740990,9.7812039781
1520616231636659234,0.1083089929,-0.0718626983,-0.0167396625,0.5809475043,0.1138777746,9.8239188634
1520616231641675234,0.1073027744,-0.0768355683,-0.0097413948,0.5665166917,0.1150780389,9.8077881394
1520616231646691234,0.1075574055,-0.0786027163,-0.0027210067,0.5893654783,0.1642410167,9.7842749213
1520616231651705234,0.1065543586,-0.0797810315,0.0018712481,0.6206322388,0.2038102155,9.7630134105
1520616231656722234,0.1083200837,-0.0786315581,0.0080994290,0.6506964316,0.2865485633,9.7579915238
1520616231661738234,0.1083303669,-0.0754459960,0.0154286221,0.7096222496,0.3584923993,9.7201592092
1520616231666754234,0.1090969655,-0.0708046727,0.0233086223,0.8623483491,0.3752684704,9.7198184402
1520616231671767234,0.1108683987,-0.0696741385,0.0365709964,0.8900074065,0.4592061459,9.7008730669
1520616231676785234,0.1108844762,-0.0670931983,0.0520121203,0.9381101150,0.4340204506,9.6272143517
1520616231681800234,0.1114004699,-0.0656739572,0.0660906888,0.9116536254,0.4052431410,9.6739856852
1520616231686816234,0.1116611580,-0.0683392969,0.0820324222,0.8791842971,0.3153101380,9.6488222552
1520616231691832234,0.1111634295,-0.0701118392,0.0909480317,0.7481044164,0.2002028663,9.6804261057
1520616231696847234,0.1089021673,-0.0745046177,0.0987647169,0.6025937231,0.1306640546,9.7249095655
1520616231701862234,0.1083978486,-0.0777187856,0.1019877472,0.6567092702,0.1198675761,9.7406633774
1520616231706878234,0.1053888607,-0.0733513845,0.1028383318,0.6482912962,0.1774269720,9.7511484801
1520616231711895234,0.1031315307,-0.0686835622,0.1004431886,0.6963940047,0.1690292427,9.7379048797
1520616231716910234,0.1001207395,-0.0654809708,0.1010143350,0.7228504944,0.1258581269,9.7446623284
1520616231721925234,0.0971066550,-0.0622674528,0.0975272930,0.7673454998,0.1150623977,9.7488883412
1520616231726941234,0.0925858793,-0.0575946893,0.0929719832,0.8142456406,0.0826819535,9.7612469997
1520616231731958234,0.0883093613,-0.0587524315,0.0894539285,0.9044382191,0.1042594566,9.7115380262
1520616231736973234,0.0840357836,-0.0605053261,0.0905307078,0.9453255213,0.2073823486,9.6447972858
1520616231741988234,0.0802736872,-0.0570189298,0.0938109365,0.9874153913,0.2721326534,9.5687851074
1520616231747005234,0.0795279216,-0.0541192201,0.0989749395,0.9681743079,0.3009135221,9.5305935737
1520616231752019234,0.0777879183,-0.0421826133,0.1025864497,0.8900074065,0.3452878057,9.5545540159
1520616231757035234,0.0780620496,-0.0258671666,0.1035221135,0.8202584792,0.3380983954,9.5145648868
1520616231762052234,0.0798423940,-0.0092531888,0.1020222869,0.7974096926,0.3369010345,9.5821928016
1520616231767067234,0.0763384259,0.0029915957,0.0991461857,0.7938019895,0.2997279624,9.6333985003
1520616231772082234,0.0778588504,0.0140728113,0.0962518578,0.7841814478,0.2373734096,9.6614444012
1520616231777099234,0.0748482866,0.0202016313,0.0922459548,0.7649403644,0.1954049934,9.7151312309
1520616231782115234,0.0708228126,0.0222645144,0.0830704235,0.7012042756,0.1210632511,9.8297142055
1520616231787130234,0.0647811458,0.0220042748,0.0706342906,0.5785423689,0.0862977321,9.9401835637
1520616231792147234,0.0597430983,0.0235058479,0.0533398031,0.5797449366,0.0539208471,9.9948241967
1520616231797162234,0.0536955862,0.0212161146,0.0371004661,0.5809475043,0.0275396641,10.0866475895
1520616231802176234,0.0473923335,0.0163067358,0.0197594044,0.6158219680,0.0083507012,10.1595419214
1520616231807193234,0.0393351756,0.0134283468,0.0054131762,0.7036094110,0.0479154980,10.0947309466
1520616231812208234,0.0300256557,0.0122919453,-0.0067530127,0.7577249581,0.0826863555,10.0593059896
1520616231817224234,0.0229788328,0.0102749919,-0.0162246124,0.7469018487,0.1030725857,9.9245827576
1520616231822239234,0.0154272520,0.0050453275,-0.0230142737,0.7589275258,0.1030716491,9.9267899950
1520616231827256234,0.0058660334,0.0021539645,-0.0327584213,0.7276607653,0.0946801013,9.9573182546
1520616231832271234,0.0015858303,0.0021792427,-0.0427606851,0.6122142648,0.0563165991,9.9003721612
1520616231837287234,-0.0082145418,0.0091992256,-0.0540520565,0.5917706137,0.0826992806,9.8621946712
1520616231842303234,-0.0152549783,0.0144785404,-0.0677968134,0.6494938639,0.1450500870,9.8987606294
1520616231847319234,-0.0215400717,0.0188752557,-0.0783030890,0.6374681868,0.1978132022,9.9232312521
1520616231852334234,-0.0300849650,0.0238502118,-0.0874479884,0.7000017079,0.2062023148,9.9458572828
1520616231857350234,-0.0351172652,0.0235765258,-0.0947456162,0.7180402236,0.1870146632,9.8980525143
1520616231862367234,-0.0421578037,0.0235876093,-0.0998729200,0.7637377967,0.1738205594,9.9034313047
1520616231867382234,-0.0512067138,0.0232985078,-0.1020227082,0.7974096926,0.1786144986,9.9170446132
1520616231872396234,-0.0602587094,0.0186291688,-0.1006887461,0.7889917186,0.1882082776,9.8450642687
1520616231877413234,-0.0672970172,0.0154131695,-0.0977241269,0.7793711769,0.1966030099,9.7707725107
1520616231882429234,-0.0730762316,0.0154087197,-0.0969017546,0.7697506352,0.2493659378,9.7475718211
1520616231887444234,-0.0793557581,0.0162745845,-0.0947190501,0.7986122603,0.2397705666,9.7240573754
1520616231892461234,-0.0833724504,0.0183083303,-0.0930727455,0.7649403644,0.2469680316,9.7301888207
1520616231897476234,-0.0868865842,0.0220985929,-0.0943900408,0.7036094110,0.2565659316,9.7249657041
1520616231902491234,-0.0898984340,0.0235485066,-0.0922089575,0.7312684684,0.2026024584,9.8177206244
1520616231907508234,-0.0946673919,0.0279181323,-0.0924372894,0.7324710361,0.2253860328,9.8014166866
1520616231912523234,-0.0974297933,0.0270326977,-0.0886511821,0.7757634738,0.3033267885,9.7288663723
1520616231917539234,-0.0991829575,0.0270123409,-0.0813431759,0.8274738854,0.3189115867,9.6853485272
1520616231922554234,-0.1001830641,0.0252388732,-0.0721560870,0.8238661823,0.3237084293,9.6900275408
1520616231927570234,-0.1034428844,0.0234579636,-0.0605298846,0.8551329428,0.3105154495,9.7129789512
1520616231932586234,-0.1041903750,0.0216802238,-0.0497199871,0.8515252397,0.2733423774,9.6921317247
1520616231937601234,-0.1036885771,0.0181706947,-0.0448777715,0.7781686092,0.2481661417,9.6800867057
1520616231942617234,-0.0981545574,0.0184474913,-0.0386632607,0.7240530621,0.2229884076,9.6806379894
1520616231947631234,-0.0948784440,0.0213451341,-0.0321539957,0.7132299527,0.2205909696,9.6528542187
1520616231952648234,-0.0905984918,0.0260038613,-0.0302325394,0.6398733222,0.1594405213,9.6513035755
1520616231957665234,-0.0888339858,0.0309624581,-0.0318212894,0.6627221088,0.1402524950,9.6022898428
1520616231962680234,-0.0830444333,0.0382500641,-0.0320469928,0.7264581976,0.0515111397,9.5901345664
1520616231967696234,-0.0790147644,0.0449542120,-0.0322738753,0.7324710361,0.0455149693,9.5017589473
1520616231972710234,-0.0712201922,0.0469918568,-0.0303789608,0.7541172550,0.0443141430,9.5015494256
1520616231977727234,-0.0611629622,0.0499052697,-0.0287521235,0.7276607653,0.0419179226,9.4750799646
1520616231982743234,-0.0523631476,0.0531139454,-0.0287440049,0.6386707545,0.0862930491,9.4933350325
1520616231987758234,-0.0425555384,0.0595340723,-0.0308776664,0.6675323796,0.1126718906,9.4535154912
1520616231992775234,-0.0337499569,0.0682848815,-0.0329916763,0.6783554890,0.0994805030,9.5219895018
1520616231997790234,-0.0236909116,0.0767535396,-0.0383567937,0.6579118379,0.1558416951,9.5325928244
1520616232002805234,-0.0138801858,0.0828706270,-0.0361639440,0.7000017079,0.1702281021,9.5681955779
1520616232007821234,-0.0050815159,0.0849123078,-0.0356236259,0.7456992810,0.1870125090,9.6060851655
1520616232012837234,0.0044656794,0.0817035350,-0.0329603564,0.7360787393,0.2026020838,9.6445143550
1520616232017852234,0.0160306044,0.0808127858,-0.0251426639,0.7312684684,0.2133947222,9.6085241886
1520616232022868234,0.0275887196,0.0784811396,-0.0232880966,0.7360787393,0.2133943476,9.5492080267
1520616232027884234,0.0351251676,0.0732238747,-0.0176606500,0.7396864424,0.2337794538,9.6525838447
1520616232032900234,0.0431639034,0.0670897394,-0.0109586225,0.7360787393,0.1990046625,9.6689228861
1520616232037915234,0.0524596666,0.0632959138,-0.0074876948,0.7625352289,0.1978034615,9.6651801123
1520616232042931234,0.0594903884,0.0539510559,0.0010855669,0.7925994218,0.2061951030,9.6253664061
1520616232047946234,0.0690358156,0.0463576750,0.0088558622,0.7012042756,0.2469729956,9.6018112098
1520616232052962234,0.0775775922,0.0416857583,0.0136742504,0.6230373742,0.2277928367,9.6165364754
1520616232057978234,0.0828510765,0.0361391365,0.0182214908,0.5448704729,0.2086126778,9.6719367793
1520616232062994234,0.0881284421,0.0370189998,0.0168656294,0.5063883061,0.2026199728,9.7536672646
1520616232068013234,0.0916443401,0.0361498668,0.0154996965,0.5148062801,0.2134115810,9.7803041161
1520616232073025234,0.0954123289,0.0358636012,0.0141377431,0.5773398012,0.2182032724,9.7901500714
1520616232078042234,0.0984231633,0.0323681684,0.0141054654,0.5941757491,0.2385873483,9.8201820646
1520616232083056234,0.0974113660,0.0265357134,0.0156861460,0.6410758899,0.2625665041,9.8429450597
1520616232088073234,0.0953918212,0.0186624445,0.0175236777,0.6891785985,0.2673593194,9.8819850746
1520616232093088234,0.0948799752,0.0084484921,0.0231282670,0.6543041348,0.2817517206,9.8997426485
1520616232098104234,0.0910992255,-0.0014673430,0.0257651419,0.6386707545,0.3081340275,9.8801126415
1520616232103118234,0.0853096690,-0.0102184276,0.0284146429,0.6037962908,0.3117341649,9.9246100504
1520616232108135234,0.0820356961,-0.0172209489,0.0313433612,0.6266450774,0.3189272279,9.9267049262
1520616232113151234,0.0787684546,-0.0192699333,0.0343098718,0.6302527805,0.3081346831,9.9754903811
1520616232118168234,0.0724836904,-0.0230698631,0.0378097364,0.6699375151,0.3297161199,9.9518401871
1520616232123181234,0.0636864201,-0.0271650758,0.0423942288,0.6963940047,0.3465020253,9.9666741765
1520616232128198234,0.0579031049,-0.0335952822,0.0488491570,0.6699375151,0.3560972093,9.9215987188
1520616232133214234,0.0528703891,-0.0414777453,0.0536682943,0.7084196819,0.3764795993,9.9165557024
1520616232138229234,0.0465891336,-0.0467528086,0.0639206909,0.7252556298,0.3812748498,9.9303328817
1520616232143245234,0.0438237801,-0.0514335264,0.0703833570,0.6639246765,0.4004658732,9.8762903643
1520616232148261234,0.0430745803,-0.0520348016,0.0771439584,0.5713269626,0.4580318254,9.8504062144
1520616232153276234,0.0418218183,-0.0520476772,0.0817455723,0.5677192594,0.4304518766,9.9050889903
1520616232158291234,0.0385528244,-0.0526273556,0.0801239181,0.5412627698,0.4232590946,9.9646228592
1520616232163308234,0.0370485911,-0.0514689641,0.0825705239,0.5172114155,0.3561091041,9.9463281401
1520616232168324234,0.0342851469,-0.0482531624,0.0782713774,0.4811343841,0.3321291054,9.9408919588
1520616232173339234,0.0315199895,-0.0453243746,0.0723467325,0.4883497904,0.2913577690,9.9524829255
1520616232178356234,0.0302568660,-0.0450101726,0.0636938205,0.4715138424,0.2613805697,9.9445410221
1520616232183371234,0.0247238578,-0.0447049286,0.0577543018,0.5099960092,0.2158102365,9.9442108952
1520616232188386234,0.0191870703,-0.0455579384,0.0491004318,0.5821500720,0.2098089148,9.9621087418
1520616232193402234,0.0159112666,-0.0475785139,0.0415156525,0.5785423689,0.1990169319,9.9423979338
1520616232198418234,0.0103755298,-0.0496058030,0.0360994409,0.5941757491,0.2122062590,9.9468814811
1520616232203433234,0.0048462577,-0.0478494639,0.0323354048,0.6531015671,0.2169982314,9.9242225209
1520616232208449234,0.0020834251,-0.0458064846,0.0307328250,0.6290502128,0.2014112791,9.8884453608
1520616232213466234,-0.0034513042,-0.0487152116,0.0280154031,0.5941757491,0.2014139952,9.8841362316
1520616232218481234,-0.0102367646,-0.0475457759,0.0256019839,0.6062014263,0.1810276714,9.8944983554
1520616232223496234,-0.0150130575,-0.0440299077,0.0177916977,0.6146194003,0.1810270158,9.8897678442
1520616232228512234,-0.0187764162,-0.0364415466,0.0127161267,0.5977834523,0.1990154334,9.8771305914
1520616232233527234,-0.0245524943,-0.0294316433,0.0057460221,0.5713269626,0.2421865491,9.9005888855
1520616232238544234,-0.0310840527,-0.0235875734,-0.0012315747,0.5881629106,0.2313929741,9.8957869630
1520616232243559234,-0.0350973460,-0.0148330442,-0.0065683324,0.5809475043,0.2277961148,9.8679692464
1520616232248575234,-0.0386069870,-0.0057891189,-0.0110921629,0.5953783168,0.2206001483,9.8352957711
1520616232253590234,-0.0443792858,0.0023790383,-0.0153479162,0.6458861608,0.2313884784,9.7964428842
1520616232258606234,-0.0478876958,0.0120042758,-0.0193262087,0.6434810254,0.2397826487,9.7697287980
1520616232263622234,-0.0541615886,0.0178273196,-0.0184584412,0.6759503536,0.2685594900,9.7821682808
1520616232268637234,-0.0589305896,0.0224897867,-0.0192256418,0.6639246765,0.2289887927,9.7625674723
1520616232273653234,-0.0604308123,0.0291961391,-0.0210655318,0.6230373742,0.2002126069,9.7722906600
1520616232278669234,-0.0641976523,0.0321128781,-0.0226595755,0.5508833115,0.1390620650,9.8125654942
1520616232283685234,-0.0672105018,0.0373711868,-0.0280248772,0.5148062801,0.1102855046,9.7978368386
1520616232288701234,-0.0717274904,0.0461291612,-0.0347134310,0.5220216864,0.1078866618,9.7849853634
1520616232293716234,-0.0744871475,0.0534301737,-0.0411458214,0.5520858792,0.1126808820,9.7707423322
1520616232298732234,-0.0762449886,0.0613281893,-0.0527160046,0.5340473635,0.0946951805,9.7628004405
1520616232303747234,-0.0792610450,0.0660117416,-0.0610617573,0.5580987177,0.1234726775,9.7962404499
1520616232308763234,-0.0825278788,0.0686445773,-0.0653644164,0.6146194003,0.1042820287,9.8201140447
1520616232313779234,-0.0850394047,0.0736146121,-0.0718150583,0.6110116971,0.0886934842,9.7934350503
1520616232318794234,-0.0898173285,0.0747943050,-0.0777493079,0.6579118379,0.1306597463,9.7696947472
1520616232323810234,-0.0905726364,0.0724571060,-0.0756013252,0.7372813070,0.1822166029,9.7665476439
1520616232328826234,-0.0918316396,0.0701233522,-0.0748051386,0.7108248173,0.1930109272,9.7656324872
1520616232333841234,-0.0943542251,0.0607878647,-0.0710839676,0.6843683276,0.2145975154,9.7681932382
1520616232338858234,-0.0935989290,0.0587346282,-0.0659605573,0.6879760307,0.2038049706,9.7809522306
1520616232343874234,-0.0958626454,0.0561061824,-0.0640825433,0.6314553482,0.1918179684,9.7757033419
1520616232348890234,-0.0968659550,0.0552214369,-0.0602997031,0.6098091294,0.2325904286,9.7596042600
1520616232353904234,-0.0981193716,0.0566742251,-0.0589335246,0.6350630514,0.2241944788,9.7500694875
1520616232358921234,-0.0983679928,0.0563725441,-0.0551476384,0.6458861608,0.2026091083,9.7639309176
1520616232363936234,-0.0973583635,0.0560655279,-0.0491997187,0.6819631922,0.2193942644,9.7321855084
1520616232368952234,-0.0968532647,0.0554720293,-0.0451469099,0.7228504944,0.2193910799,9.7620032793
1520616232373968234,-0.0953406026,0.0537002747,-0.0362350342,0.7529146872,0.2121938959,9.7489340854
1520616232378983234,-0.0943389357,0.0478584093,-0.0308704448,0.7757634738,0.1714213420,9.7673457501
1520616232383999234,-0.0950984305,0.0396811364,-0.0241676437,0.7444967133,0.0958779305,9.7468051588
1520616232389015234,-0.0925898919,0.0341356169,-0.0204269070,0.6819631922,0.0707008519,9.7241954988
1520616232394030234,-0.0895769092,0.0294622626,-0.0158687968,0.6446835931,0.0323312618,9.7001907513
1520616232399046234,-0.0873218178,0.0250945661,-0.0167179813,0.6843683276,0.0011505200,9.6777541522
1520616232404061234,-0.0873281963,0.0207252551,-0.0172924193,0.7036094110,-0.0384226125,9.6810918913
1520616232409078234,-0.0848145062,0.0204312129,-0.0159465802,0.6687349473,-0.0336233347,9.6523730617
1520616232414094234,-0.0805453704,0.0195645605,-0.0181255509,0.7324710361,0.0167355991,9.6261364145
1520616232419109234,-0.0742607905,0.0201454204,-0.0165094974,0.7553198227,-0.0072489889,9.6119916778
1520616232424124234,-0.0669702664,0.0216022845,-0.0154297334,0.7889917186,0.0491079885,9.6302032805
1520616232429140234,-0.0616900468,0.0224726782,-0.0132684982,0.8094353698,0.0742883452,9.6137097231
1520616232434156234,-0.0561587949,0.0221732617,-0.0094933466,0.8262713177,0.0658930510,9.6670126596
1520616232439172234,-0.0496274090,0.0175005573,-0.0046712247,0.8382969949,0.0527015697,9.6715570475
1520616232444187234,-0.0428459984,0.0125394806,-0.0009339761,0.8358918594,0.0706888634,9.6843465011
1520616232449204234,-0.0390759554,0.0087340194,0.0060643162,0.8503226720,0.0790817225,9.7434671967
1520616232454218234,-0.0345555795,0.0023063928,0.0130412006,0.8298790209,0.0922738593,9.6739246826
1520616232459235234,-0.0275223408,-0.0017782466,0.0159730141,0.8106379375,0.1162581664,9.6508456977
1520616232464250234,-0.0219933785,-0.0044116531,0.0208125645,0.8106379375,0.1342452727,9.6926653399
1520616232469265234,-0.0154563197,-0.0058834982,0.0272824158,0.7781686092,0.1690228738,9.6731910184
1520616232474282234,-0.0074168703,-0.0079222246,0.0280635567,0.7925994218,0.1990002605,9.7206692264
1520616232479297234,-0.0023906742,-0.0079209839,0.0283247681,0.7865865832,0.2085938522,9.6637733432
1520616232484313234,0.0048981758,-0.0085074537,0.0307417001,0.7300659007,0.2157930967,9.7026672153
1520616232489329234,0.0089170283,-0.0073286854,0.0264143905,0.7012042756,0.1942108169,9.6750777299
1520616232494345234,0.0167040028,-0.0058512283,0.0199179360,0.6531015671,0.1594394911,9.6488505320
1520616232499360234,0.0202280866,0.0002772379,0.0169820818,0.6314553482,0.1114755600,9.6398108450
1520616232504375234,0.0242486131,0.0034993401,0.0113176044,0.6422784577,0.0695048022,9.6478814340
1520616232509392234,0.0290277915,0.0116818304,0.0032546061,0.6218348065,0.0647098328,9.6597065369
1520616232514408234,0.0312925742,0.0189899111,-0.0050809400,0.6037962908,0.0263387441,9.6738652590
1520616232519422234,0.0307946066,0.0262918097,-0.0115175309,0.6302527805,0.0299341049,9.7456571649
1520616232524439234,0.0305466597,0.0318418574,-0.0166151976,0.6699375151,0.0539138226,9.7615175266
1520616232529455234,0.0305514192,0.0382654288,-0.0214361159,0.6939888693,0.0419205451,9.7891865738
1520616232534470234,0.0255323974,0.0446797467,-0.0235422407,0.6855708953,0.1054756432,9.7706122309
1520616232539486234,0.0217626954,0.0446789983,-0.0238057857,0.7469018487,0.1234579729,9.7955649000
1520616232544500234,0.0190004312,0.0458419966,-0.0232506676,0.7625352289,0.0838851213,9.7815055950
1520616232549518234,0.0129681969,0.0426234774,-0.0192057318,0.7384838747,0.0682981690,9.7678091701
1520616232554532234,0.0059292304,0.0394096634,-0.0170527503,0.7312684684,0.0826884161,9.7806489518
1520616232559549234,-0.0001048465,0.0367826544,-0.0162499190,0.7000017079,0.1126693618,9.7123575565
1520616232564565234,-0.0068911498,0.0347352054,-0.0143590578,0.6843683276,0.0802937879,9.7020819988
1520616232569579234,-0.0141815445,0.0323998171,-0.0138222157,0.6615195411,0.0539144782,9.7220865676
1520616232574596234,-0.0187034729,0.0329786287,-0.0129977309,0.6951914370,0.0527127153,9.7287328591
1520616232579611234,-0.0275025857,0.0294749262,-0.0116553431,0.6963940047,0.0263315323,9.7496654706
1520616232584628234,-0.0310167666,0.0320945517,-0.0110877094,0.7192427913,0.0227323315,9.7343387112
1520616232589642234,-0.0372960775,0.0314962095,-0.0062106614,0.6651272442,0.0011520186,9.7069950319
1520616232594659234,-0.0433265516,0.0297353414,-0.0024251560,0.6723426505,-0.0132382285,9.7452895841
1520616232599675234,-0.0513708858,0.0276924991,-0.0024257824,0.5977834523,-0.0060375790,9.8041154793
1520616232604689234,-0.0596634806,0.0288591588,-0.0040247636,0.5881629106,-0.0552015871,9.8216892220
1520616232609706234,-0.0669485043,0.0317745195,-0.0056122731,0.6037962908,-0.0336182771,9.8342995917
1520616232614722234,-0.0732296538,0.0332311660,-0.0064011273,0.5484781760,-0.0108303007,9.8592208298
1520616232619736234,-0.0800157689,0.0358662655,-0.0120499818,0.5268319572,0.0227473171,9.8105887333
1520616232624753234,-0.0873025529,0.0373239751,-0.0133780609,0.5809475043,0.0359336470,9.7937791277
1520616232629768234,-0.0958436316,0.0402373866,-0.0144221451,0.6062014263,0.0419273823,9.7865546110
1520616232634785234,-0.1003635762,0.0437365993,-0.0160103424,0.6807606245,0.0575104009,9.7974351357
1520616232639800234,-0.1041308201,0.0434349968,-0.0127590139,0.6975965724,0.0395219833,9.8123966764
1520616232644815234,-0.1099110460,0.0428485064,-0.0122116336,0.7228504944,0.0335243143,9.8365617399
1520616232649831234,-0.1161925132,0.0405011286,-0.0070773782,0.7384838747,0.0311248159,9.8259526173
1520616232654846234,-0.1212217947,0.0361196504,-0.0038548393,0.6759503536,0.0191382820,9.8161136780
1520616232659863234,-0.1272556521,0.0334919130,-0.0027814621,0.6182271034,-0.0312211201,9.8260217846
1520616232664879234,-0.1300204684,0.0326144911,-0.0019713597,0.6158219680,-0.0300217924,9.8155847298
1520616232669893234,-0.1327823367,0.0340688739,-0.0014140185,0.6446835931,-0.0396171636,9.8292588906
1520616232674910234,-0.1368000796,0.0372768989,-0.0030053724,0.6338604837,-0.0264257760,9.8154056459
1520616232679926234,-0.1400686776,0.0369886051,-0.0046248035,0.6506964316,-0.0252279468,9.8105920300
1520616232684941234,-0.1410737004,0.0358168457,-0.0024674617,0.6350630514,-0.0264258697,9.8200425167
1520616232689957234,-0.1398179590,0.0334782490,0.0004884248,0.6518989994,-0.0324228830,9.8268573563
1520616232694973234,-0.1395707962,0.0302723892,0.0007340501,0.6410758899,0.0011538918,9.8025249373
1520616232699988234,-0.1383189203,0.0273612215,-0.0001021521,0.5953783168,-0.0240244981,9.7704542549
1520616232705003234,-0.1398326958,0.0232827043,-0.0006715667,0.6182271034,-0.0719918945,9.7795757840
1520616232710020234,-0.1375815170,0.0171717996,-0.0034279110,0.6543041348,-0.0947783724,9.7908682893
1520616232715036234,-0.1343283145,0.0072667341,-0.0037801092,0.6374681868,-0.1151624483,9.7910520388
1520616232720050234,-0.1305698327,-0.0014762387,-0.0027716190,0.6266450774,-0.1307504309,9.7237682364
1520616232725067234,-0.1273093696,-0.0055514284,-0.0038909932,0.6410758899,-0.0983747634,9.7177854838
1520616232730083234,-0.1227883233,-0.0075908047,-0.0033738640,0.6807606245,-0.0875855903,9.6720650787
1520616232735099234,-0.1167603662,-0.0110901552,-0.0015179211,0.6458861608,-0.0935785763,9.7084368346
1520616232740114234,-0.1109807166,-0.0125506408,0.0006245960,0.6218348065,-0.0600007713,9.7376917931
1520616232745130234,-0.1046969717,-0.0122597086,0.0016973345,0.5292370926,-0.0887729296,9.7397832905
1520616232750145234,-0.1006740773,-0.0102162563,0.0008937909,0.5665166917,-0.0803818501,9.7184936572
1520616232755160234,-0.0928830648,-0.0093375937,0.0003448999,0.5737320980,-0.0563996036,9.7184000401
1520616232760178234,-0.0820736986,-0.0078815365,0.0022297675,0.5965808846,-0.0647953661,9.7565365799
1520616232765193234,-0.0745351728,-0.0078771260,0.0016746740,0.6458861608,-0.0384181169,9.7246530603
1520616232770207234,-0.0680045317,-0.0119619623,0.0046074209,0.6410758899,-0.0588031294,9.7200711835
1520616232775224234,-0.0587051657,-0.0148896470,0.0110610228,0.6651272442,-0.0863852323,9.7709983112
1520616232780240234,-0.0499131449,-0.0198506645,0.0150650835,0.6591144056,-0.0923804662,9.8024405699
1520616232785255234,-0.0426292699,-0.0253964987,0.0196085901,0.6374681868,-0.0947770611,9.7991671677
1520616232790271234,-0.0356008650,-0.0309285911,0.0190121914,0.5713269626,-0.1223521396,9.7614870902
1520616232795286234,-0.0258055738,-0.0332485432,0.0162707456,0.5436679052,-0.1571250577,9.7501687778
1520616232800303234,-0.0195254789,-0.0349943890,0.0162457390,0.5605038532,-0.2026937050,9.7419143342
1520616232805317234,-0.0117423346,-0.0373093013,0.0113436597,0.5340473635,-0.1787088360,9.7258784433
1520616232810334234,-0.0034504808,-0.0364246144,0.0086294682,0.5099960092,-0.2098846138,9.7342779549
1520616232815349234,0.0033367046,-0.0329166006,0.0053969929,0.5148062801,-0.2230755331,9.7435411490
1520616232820365234,0.0076113017,-0.0276547083,-0.0002523897,0.5725295303,-0.2206817480,9.7011397853
1520616232825381234,0.0136398430,-0.0261801257,-0.0059339394,0.5087934415,-0.1966939755,9.6982503347
1520616232830397234,0.0194278588,-0.0188874206,-0.0080534641,0.5364524989,-0.1655184787,9.6816807002
1520616232835412234,0.0269771226,-0.0098449907,-0.0104334632,0.6001885877,-0.1775148469,9.6799098816
1520616232840429234,0.0310061289,-0.0046021361,-0.0090481857,0.6338604837,-0.1307509929,9.7283465819
1520616232845444234,0.0347794337,-0.0037352468,-0.0058019666,0.6687349473,-0.1091691814,9.7523911102
1520616232850460234,0.0393044788,-0.0046170978,-0.0022999402,0.7444967133,-0.0839931331,9.7400076960
1520616232855475234,0.0418200114,-0.0055026502,0.0022880035,0.7517121195,-0.0875911163,9.7492381253
1520616232860491234,0.0458372643,-0.0113433340,0.0076469922,0.6747477859,-0.0875851220,9.7465008170
1520616232865508234,0.0506051597,-0.0189291160,0.0119090585,0.6831657599,-0.1031746032,9.7406233633
1520616232870522234,0.0518582627,-0.0227224500,0.0140421920,0.6831657599,-0.1235599904,9.7418053860
1520616232875539234,0.0536136536,-0.0273926544,0.0172499063,0.6398733222,-0.1139634952,9.7236231100
1520616232880554234,0.0571274777,-0.0320599844,0.0196427159,0.6242399420,-0.1451399287,9.7470485577
1520616232885568234,0.0593887712,-0.0323504828,0.0196362923,0.6278476451,-0.1499367713,9.7516666957
1520616232890586234,0.0626593058,-0.0303124249,0.0207279701,0.5965808846,-0.1223541064,9.7403226928
1520616232895601234,0.0656781457,-0.0285658500,0.0218178915,0.6074039940,-0.1247532302,9.7646247090
1520616232900617234,0.0661823704,-0.0276929564,0.0223647191,0.6182271034,-0.1223557923,9.7738141765
1520616232905632234,0.0666915661,-0.0233241768,0.0232087696,0.6518989994,-0.1091678701,9.7641764205
1520616232910649234,0.0704640868,-0.0201130996,0.0216029473,0.6290502128,-0.0827850013,9.7713459548
1520616232915663234,0.0727280619,-0.0192417021,0.0229581455,0.6290502128,-0.0707935970,9.7620371098
1520616232920679234,0.0722267384,-0.0189534282,0.0240434857,0.6819631922,-0.0456157692,9.7324439324
1520616232925694234,0.0732311849,-0.0198286448,0.0245760413,0.6951914370,-0.0719978888,9.7242058945
1520616232930711234,0.0732323649,-0.0218814483,0.0294303058,0.6807606245,-0.0743950457,9.7603751565
1520616232935726234,0.0714723440,-0.0245133394,0.0326601159,0.6422784577,-0.0731929081,9.7421542457
1520616232940742234,0.0709691269,-0.0262676709,0.0348120780,0.6314553482,-0.0767894865,9.7422630992
1520616232945758234,0.0704648591,-0.0268477232,0.0337263817,0.6518989994,-0.0863842021,9.7629920591
1520616232950774234,0.0669407871,-0.0285857538,0.0293908429,0.6302527805,-0.0887807971,9.7771508163
1520616232955790234,0.0629232205,-0.0250856157,0.0275311663,0.5833526397,-0.0995694081,9.7904014210
1520616232960805234,0.0606692739,-0.0195509243,0.0278481513,0.6122142648,-0.1019699368,9.7552585197
1520616232965821234,0.0516239705,-0.0175104064,0.0262572396,0.6867734630,-0.1055731650,9.7382662989
1520616232970836234,0.0481090409,-0.0157663913,0.0273592958,0.6867734630,-0.1163654288,9.7057367922
1520616232975852234,0.0448480445,-0.0140310190,0.0317074360,0.6867734630,-0.1271576926,9.6732072855
1520616232980868234,0.0380699662,-0.0108371886,0.0349910422,0.6675323796,-0.1427450196,9.7245441018
1520616232985883234,0.0335545889,-0.0070604316,0.0385454400,0.5785423689,-0.1211535611,9.7056327807
1520616232990899234,0.0297922769,-0.0021098283,0.0391313251,0.5388576343,-0.1223496108,9.7408845355
1520616232995915234,0.0242698263,0.0054778436,0.0340590212,0.4991728998,-0.0923680094,9.7400794249
1520616233000931234,0.0195044361,0.0139334085,0.0314268995,0.5304396603,-0.0863747424,9.7513906863
1520616233005947234,0.0170012645,0.0232661984,0.0279856088,0.5701243949,-0.0348147950,9.7126033874
1520616233010962234,0.0122287508,0.0279403204,0.0228896739,0.5905680460,-0.0036387362,9.7170225744
1520616233015978234,0.0104736657,0.0320241136,0.0210302429,0.6446835931,0.0239372788,9.6688210500
1520616233020993234,0.0084700064,0.0369768629,0.0210717691,0.6951914370,0.0251324855,9.6973818671
1520616233026010234,0.0044476021,0.0375660694,0.0181076780,0.6735452182,0.0227358906,9.7243242077
1520616233031026234,0.0011762363,0.0367015624,0.0140488877,0.6675323796,0.0047492525,9.7325352808
1520616233036043234,-0.0008413208,0.0332121732,0.0110499396,0.6963940047,-0.0036469783,9.7380732646
1520616233041057234,-0.0028560631,0.0314696342,0.0086054218,0.6747477859,-0.0240306796,9.7882760244
1520616233046072234,-0.0066309909,0.0311935268,0.0023876440,0.6543041348,-0.0576050192,9.8001291914
1520616233051097234,-0.0088972908,0.0312079377,-0.0032896193,0.6314553482,-0.0755903461,9.8073419913
1520616233056104234,-0.0141799254,0.0303455568,-0.0084268594,0.5905680460,-0.1235527786,9.8287053279
1520616233061119234,-0.0174532279,0.0277312857,-0.0119578964,0.6098091294,-0.0959740474,9.8087347050
1520616233066136234,-0.0207246368,0.0271596201,-0.0165555554,0.5917706137,-0.0899769404,9.7949587067
1520616233071150234,-0.0234917740,0.0286314852,-0.0224913158,0.5965808846,-0.0707910682,9.8227846320
1520616233076166234,-0.0287705392,0.0298051538,-0.0262602648,0.6098091294,-0.0444110092,9.8156572872
1520616233081182234,-0.0310318287,0.0315591307,-0.0286776388,0.6410758899,-0.0348203209,9.7769928505
1520616233086198234,-0.0327951389,0.0304016446,-0.0319298148,0.6434810254,-0.0324222274,9.7641835182
1520616233091213234,-0.0358135828,0.0289464542,-0.0330175132,0.6194296711,0.0047529989,9.7678678017
1520616233096230234,-0.0368196994,0.0292418155,-0.0346366986,0.6194296711,0.0047529989,9.7597327940
1520616233101244234,-0.0368221183,0.0277863497,-0.0351889058,0.6013911554,-0.0012412983,9.7494549209
1520616233106261234,-0.0388394128,0.0240033907,-0.0373784393,0.6134168325,-0.0072379370,9.7679380203
1520616233111277234,-0.0388404674,0.0237141914,-0.0381923001,0.5725295303,-0.0108321739,9.7985552431
1520616233116292234,-0.0358266809,0.0240140417,-0.0409011366,0.5881629106,0.0239416808,9.8204499017
1520616233121307234,-0.0370880559,0.0213954593,-0.0425420861,0.5677192594,0.0251424135,9.8032155590
1520616233126323234,-0.0345760752,0.0222778818,-0.0452455431,0.5713269626,0.0059558857,9.8008748653
1520616233131340234,-0.0350776614,0.0228597255,-0.0449696176,0.6086065617,0.0263383695,9.8028164177
1520616233136356234,-0.0340721563,0.0237371866,-0.0460469988,0.6074039940,-0.0084366091,9.7761327226
1520616233141371234,-0.0333152686,0.0257764452,-0.0457622915,0.5520858792,0.0071565247,9.7708452341
1520616233146387234,-0.0320595232,0.0249013271,-0.0452302025,0.5881629106,0.0047554341,9.7298213827
1520616233151402234,-0.0315596542,0.0225689909,-0.0447078289,0.6110116971,0.0023553737,9.7830599472
1520616233156417234,-0.0292973963,0.0216898960,-0.0425543315,0.6591144056,-0.0096397769,9.7826034383
1520616233161435234,-0.0272881504,0.0205236886,-0.0420258658,0.6086065617,-0.0096358432,9.8005272100
1520616233166450234,-0.0267858703,0.0167198612,-0.0361036896,0.5917706137,-0.0060371107,9.7972011409
1520616233171464234,-0.0262865776,0.0123405490,-0.0328914186,0.5977834523,-0.0336178088,9.8645738597
1520616233176481234,-0.0267951186,0.0065061057,-0.0305000338,0.5617064209,-0.0324158585,9.8846802893
1520616233181496234,-0.0273031735,0.0018408426,-0.0294524862,0.5929731814,-0.0480071192,9.8576618483
1520616233186512234,-0.0283161195,-0.0066220858,-0.0249158085,0.5857577751,-0.0504048381,9.8833015843
1520616233191528234,-0.0280678629,-0.0112950663,-0.0208936562,0.5568961500,-0.0252206414,9.8603150705
1520616233196544234,-0.0283222040,-0.0159682436,-0.0168705704,0.5196165509,-0.0527979676,9.8676776857
1520616233201557234,-0.0270684424,-0.0197637629,-0.0139257992,0.5400602021,-0.0575961215,9.8454026420
1520616233206575234,-0.0273180320,-0.0209403260,-0.0098760364,0.4871472227,-0.0611894218,9.7750303913
1520616233211590234,-0.0280670475,-0.0183225312,-0.0082313531,0.4715138424,-0.0779761701,9.7566046245
1520616233216606234,-0.0268065546,-0.0171645135,-0.0052487895,0.4859446550,-0.0707824515,9.7750514511
1520616233221621234,-0.0237854722,-0.0142545858,-0.0033383381,0.4991728998,-0.0719826222,9.7853831604
1520616233226638234,-0.0247869745,-0.0125110431,-0.0016998573,0.5136037124,-0.0456026568,9.7596498073
1520616233231654234,-0.0232805459,-0.0136767189,-0.0014410041,0.4606907330,-0.0012303401,9.7577972763
1520616233236668234,-0.0205150748,-0.0142649608,0.0009843289,0.5256293895,-0.0000362573,9.7420561625
1520616233241684234,-0.0180037135,-0.0151366730,0.0004319006,0.5003754675,0.0035631308,9.7539199002
1520616233246700234,-0.0167524570,-0.0198019753,0.0017467271,0.4883497904,-0.0168213198,9.7308139504
1520616233251715234,-0.0124847756,-0.0227126899,0.0011754701,0.4330316756,-0.0132195901,9.7057817080
1520616233256732234,-0.0074583129,-0.0215415406,-0.0001777015,0.4691087070,-0.0264129446,9.7368213058
1520616233261748234,-0.0059541228,-0.0224070907,-0.0031631759,0.4510701913,-0.0503943482,9.7428309882
1520616233266764234,-0.0054551750,-0.0244436717,-0.0042618545,0.4282214047,-0.0707779558,9.7663161422
1520616233271778234,-0.0006813323,-0.0247317287,-0.0048140372,0.4498676236,-0.1079529948,9.7580066930
1520616233276795234,0.0048515113,-0.0209386501,-0.0058775885,0.4522727590,-0.0623858461,9.7556145601
1520616233281811234,0.0061067352,-0.0197631501,-0.0093881265,0.4462599204,-0.0935630288,9.7928920947
1520616233286827234,0.0088703598,-0.0212233604,-0.0077811005,0.4546778944,-0.0815722802,9.7927984659
1520616233291842234,0.0108851452,-0.0197736628,-0.0047977140,0.4943626290,-0.0408045965,9.8167774646
1520616233296858234,0.0123982150,-0.0168635974,-0.0031550081,0.4715138424,-0.0360062553,9.7949144481
1520616233301873234,0.0128986565,-0.0186124361,-0.0028987342,0.4823369518,-0.0539942046,9.7750701955
1520616233306889234,0.0169212803,-0.0192023710,0.0003359029,0.5075908738,-0.0551953119,9.7725012707
1520616233311905234,0.0186744719,-0.0253287696,0.0032619559,0.4811343841,-0.0240156004,9.7611069396
1520616233316920234,0.0189249788,-0.0259114402,0.0032570430,0.4943626290,-0.0348088944,9.7400701169
1520616233321935234,0.0201775172,-0.0273613147,0.0008086809,0.4739189778,-0.0180193363,9.7228205728
1520616233326952234,0.0209282931,-0.0285214584,-0.0010954329,0.4630958684,-0.0204167742,9.7531439998
1520616233331968234,0.0229373665,-0.0285163002,-0.0027224421,0.4703112747,-0.0408027233,9.7670393757
1520616233336984234,0.0231842274,-0.0296722703,-0.0062488978,0.4835395195,-0.0252149281,9.7634089868
1520616233341999234,0.0226810182,-0.0284996448,-0.0089445310,0.4859446550,-0.0360073792,9.7134239107
1520616233347014234,0.0239374692,-0.0282063111,-0.0094857333,0.4655010038,-0.0467980508,9.7252548602
1520616233352029234,0.0239324589,-0.0299458771,-0.0127456226,0.4823369518,-0.0647864684,9.7681078558
1520616233357046234,0.0241825738,-0.0293564537,-0.0151765562,0.4907549258,-0.0815750900,9.7552587077
1520616233362062234,0.0239275428,-0.0293441688,-0.0197753697,0.4679061393,-0.0827724508,9.7485094094
1520616233367077234,0.0234196290,-0.0304975205,-0.0243826088,0.4655010038,-0.0815731231,9.7171537634
1520616233372092234,0.0241691778,-0.0307754979,-0.0292560582,0.4847420873,-0.0611892345,9.7378651949
1520616233377109234,0.0214014643,-0.0313506088,-0.0325019212,0.5220216864,-0.0791792443,9.7781949166
1520616233382125234,0.0226567274,-0.0319314287,-0.0330497927,0.4967677644,-0.0791772774,9.7389278284
1520616233387141234,0.0196367036,-0.0330886787,-0.0365701810,0.5665166917,-0.0587973225,9.7544990717
1520616233392156234,0.0171194930,-0.0357099387,-0.0373971593,0.5376550666,-0.0551976534,9.8035865311
1520616233397172234,0.0163565796,-0.0415342825,-0.0387929503,0.5256293895,-0.0192225041,9.7722906147
1520616233402187234,0.0133347484,-0.0453198206,-0.0401689792,0.4955651967,-0.0024321967,9.7621075748
1520616233407203234,0.0115695878,-0.0488127536,-0.0418156645,0.4811343841,-0.0216173195,9.7785367603
1520616233412220234,0.0115706855,-0.0488163957,-0.0404629350,0.4931600612,0.0251482204,9.7853469692
1520616233417235234,0.0090591948,-0.0470661594,-0.0415271129,0.5184139832,0.0203496919,9.7920787041
1520616233422249234,0.0057954385,-0.0429800432,-0.0444659271,0.5039831707,0.0095585520,9.8387154470
1520616233427266234,0.0050423379,-0.0409340910,-0.0468838784,0.4486650559,0.0179568433,9.7695170570
1520616233432283234,0.0017814827,-0.0356868072,-0.0481905250,0.4498676236,0.0167576092,9.7462636422
1520616233437297234,-0.0002228822,-0.0319025098,-0.0470757075,0.4558804621,0.0227528430,9.7345778306
1520616233442312234,-0.0024792478,-0.0278232840,-0.0473109297,0.4871472227,0.0239495483,9.6773272761
1520616233447330234,-0.0029797754,-0.0254887626,-0.0486449410,0.4330316756,0.0299494651,9.6894695965
1520616233452344234,-0.0027237682,-0.0216992084,-0.0491575995,0.4534753267,0.0323461537,9.7113490069
1520616233457361234,-0.0009612852,-0.0179046929,-0.0512963336,0.4618933007,0.0227523747,9.7043035625
1520616233462375234,-0.0032226610,-0.0155650332,-0.0547914450,0.4282214047,0.0455386652,9.6790419197
1520616233467391234,-0.0037268817,-0.0149744483,-0.0577620703,0.4318291079,0.0395426821,9.7103905380
1520616233472407234,-0.0042290324,-0.0120491451,-0.0620676403,0.4089803213,0.0215573553,9.7373597851
1520616233477423234,-0.0049850694,-0.0079445620,-0.0715042233,0.3957520765,-0.0072209846,9.7654080597
1520616233482439234,-0.0039839121,-0.0073453736,-0.0774536537,0.4342342433,0.0323476523,9.8079942360
1520616233487454234,-0.0075049027,-0.0061666452,-0.0828491452,0.4715138424,0.0215524850,9.8634248132
1520616233492470234,-0.0082610338,-0.0044033364,-0.0885158703,0.4667035716,0.0215528597,9.8251208829
1520616233497486234,-0.0127844519,-0.0026487887,-0.0914701356,0.4799318164,0.0239501102,9.8366112281
1520616233502501234,-0.0165579802,-0.0049784280,-0.0925631030,0.4775266810,0.0071623316,9.8285160013
1520616233507517234,-0.0205809138,-0.0052655604,-0.0947222257,0.4570830299,0.0059647834,9.8240675808
1520616233512533234,-0.0225880975,-0.0046915917,-0.0917380409,0.5472756083,0.0023603377,9.7964638986
1520616233517549234,-0.0255995514,-0.0029502935,-0.0895547346,0.6146194003,-0.0276234179,9.8214048160
1520616233522563234,-0.0293660896,-0.0020834442,-0.0873766973,0.5617064209,0.0071557754,9.8102644881
1520616233527581234,-0.0323845845,-0.0061727502,-0.0841556691,0.5015780352,-0.0216189117,9.8224992446
1520616233532596234,-0.0338989363,-0.0122982434,-0.0820351863,0.4859446550,-0.0252151154,9.8296277820
1520616233537612234,-0.0379166911,-0.0134806539,-0.0763551473,0.4919574935,-0.0587915156,9.8493584455
1520616233542627234,-0.0439444365,-0.0129089889,-0.0730929490,0.4919574935,-0.0719820602,9.8621548917
1520616233547642234,-0.0439426802,-0.0129148164,-0.0709285818,0.4727164101,-0.0312097873,9.8832210062
1520616233552658234,-0.0469528599,-0.0108850473,-0.0676608688,0.4715138424,-0.0372053957,9.8332663680
1520616233557674234,-0.0504674799,-0.0082639650,-0.0676343269,0.4859446550,-0.0288125367,9.8482255933
1520616233562690234,-0.0527247706,-0.0053524627,-0.0670668038,0.4775266810,-0.0491972683,9.8506516954
1520616233567706234,-0.0534700500,-0.0012835727,-0.0632466379,0.4775266810,-0.0168204768,9.8657279946
1520616233572721234,-0.0572326718,0.0027899633,-0.0615852384,0.5136037124,-0.0348103930,9.8165843370
1520616233577737234,-0.0587390142,0.0033699563,-0.0607663542,0.5376550666,-0.0396088279,9.8349492165
1520616233582753234,-0.0564811550,-0.0004215270,-0.0591761795,0.5593012855,-0.0336148116,9.7905712085
1520616233587768234,-0.0592465869,-0.0015896050,-0.0586388461,0.5893654783,-0.0372145744,9.7891199461
1520616233592785234,-0.0597531441,-0.0045036472,-0.0586601435,0.6037962908,-0.0611985068,9.8006243118
1520616233597800234,-0.0577459251,-0.0082974143,-0.0562578643,0.6410758899,-0.0528074273,9.8014154136
1520616233602815234,-0.0582543289,-0.0120834248,-0.0570974687,0.6795580568,-0.0624035478,9.8056987823
1520616233607831234,-0.0587575891,-0.0135449149,-0.0554843753,0.6037962908,-0.0791856131,9.8552626177
1520616233612847234,-0.0607672349,-0.0141335706,-0.0535912664,0.5568961500,-0.0887750838,9.8197020071
1520616233617863234,-0.0587562719,-0.0135492855,-0.0538610999,0.5400602021,-0.0839772109,9.7942940335
1520616233622877234,-0.0574937050,-0.0085930709,-0.0546372788,0.5568961500,-0.0839785221,9.8173730418
1520616233627895234,-0.0582439045,-0.0053859512,-0.0554230623,0.5436679052,-0.1331422492,9.8419547634
1520616233632910234,-0.0572296021,0.0013162867,-0.0553737983,0.5496807438,-0.1523289643,9.8128613486
1520616233637927234,-0.0597331265,0.0100648507,-0.0582784433,0.5520858792,-0.1595239941,9.8291149699
1520616233642941234,-0.0564610472,0.0150247666,-0.0601405395,0.5605038532,-0.1103598924,9.8336336674
1520616233647957234,-0.0584671253,0.0185220502,-0.0606512205,0.5965808846,-0.0731893491,9.8332462662
1520616233652972234,-0.0582106751,0.0237736260,-0.0630465848,0.5881629106,-0.0587990084,9.8333141696
1520616233657989234,-0.0589567425,0.0287232255,-0.0616546627,0.5629089886,-0.0324159522,9.7986699317
1520616233663005234,-0.0574399326,0.0345478646,-0.0602602718,0.5617064209,-0.0360132798,9.8056580085
1520616233668020234,-0.0546712859,0.0392176559,-0.0626647495,0.5869603429,-0.0504049317,9.8414526969
1520616233673035234,-0.0566744199,0.0435832656,-0.0610043940,0.6062014263,-0.0468090090,9.8168568850
1520616233678052234,-0.0554108886,0.0479508836,-0.0596206519,0.5809475043,-0.0516036039,9.8391881036
1520616233683067234,-0.0546528130,0.0508642958,-0.0593292753,0.5424653375,-0.0516006068,9.8256169380
1520616233688083234,-0.0541504348,0.0508652212,-0.0596007547,0.5881629106,-0.0743878339,9.8124107798
1520616233693099234,-0.0526369259,0.0537738297,-0.0574169570,0.5737320980,-0.0707892887,9.8543849148
1520616233698114234,-0.0533880507,0.0558132261,-0.0573999952,0.5761372334,-0.0839800207,9.8718065267
1520616233703129234,-0.0533889759,0.0546455027,-0.0565972499,0.5821500720,-0.0791839273,9.8670947483
1520616233708146234,-0.0508748899,0.0546428451,-0.0552491876,0.5713269626,-0.0959710503,9.8625678887
1520616233713162234,-0.0508767364,0.0537708768,-0.0560674946,0.5881629106,-0.1151586083,9.8252341208
1520616233718178234,-0.0513746296,0.0560966571,-0.0541549552,0.5785423689,-0.1127595781,9.7939475358
1520616233723192234,-0.0488548707,0.0592948587,-0.0511591636,0.5039831707,-0.0959658053,9.7946568786
1520616233728209234,-0.0481005783,0.0595865386,-0.0511583407,0.4823369518,-0.1115529449,9.8123149303
1520616233733224234,-0.0480971911,0.0619168863,-0.0508700101,0.4883497904,-0.1115534132,9.7913378139
1520616233738240234,-0.0453249847,0.0677456599,-0.0508306824,0.4366393787,-0.0911639986,9.8115776997
1520616233743256234,-0.0448130604,0.0744469725,-0.0505099390,0.4210059985,-0.0419980237,9.8384112335
1520616233748271234,-0.0445563043,0.0791121371,-0.0515570199,0.4378419465,-0.0419993349,9.8161666276
1520616233753286234,-0.0425371163,0.0849377016,-0.0504341084,0.4787292487,-0.0264136939,9.8180777422
1520616233758303234,-0.0425295538,0.0887176877,-0.0474292034,0.5184139832,-0.0360099080,9.8455922849
1520616233763319234,-0.0412703389,0.0881237560,-0.0431072489,0.5196165509,-0.0408065634,9.8409366814
1520616233768334234,-0.0402689739,0.0843317804,-0.0415147405,0.5304396603,-0.0144263170,9.8256977390
1520616233773350234,-0.0425373163,0.0758647175,-0.0356229998,0.5520858792,0.0083556651,9.8568427173
1520616233778366234,-0.0433027898,0.0650729966,-0.0319162112,0.5677192594,0.0011596050,9.8136982413
1520616233783382234,-0.0428079859,0.0569035003,-0.0279212026,0.5977834523,-0.0468083534,9.8506409950
1520616233788397234,-0.0440659032,0.0501756688,-0.0185008936,0.5713269626,-0.0372131695,9.8334569922
1520616233793412234,-0.0443203345,0.0446246957,-0.0131317476,0.5220216864,-0.0276162061,9.8432246965
1520616233798428234,-0.0455808392,0.0390762425,-0.0088429182,0.4727164101,-0.0503960340,9.8797532838
1520616233803444234,-0.0460942651,0.0291602305,-0.0056710189,0.4895523581,-0.0767784346,9.8215079408
1520616233808461234,-0.0453443361,0.0233197236,-0.0008470547,0.4823369518,-0.0707821705,9.8029780212
1520616233813475234,-0.0430854262,0.0183539610,0.0039807785,0.4330316756,-0.0755748922,9.7837061586
1520616233818492234,-0.0435958569,0.0119403907,0.0050149876,0.3945495088,-0.1091478269,9.7480869993
1520616233823506234,-0.0408400183,0.0052374443,0.0057703604,0.4149931599,-0.1379287893,9.7595375170
1520616233828523234,-0.0390849763,0.0014464925,0.0070909227,0.3849289671,-0.1343290265,9.6889358542
1520616233833539234,-0.0380816706,0.0008677594,0.0057318802,0.3500545034,-0.1055469402,9.6532207741
1520616233838554234,-0.0325511597,0.0026196895,0.0051938590,0.3416365294,-0.1163385484,9.6800425445
1520616233843570234,-0.0292816796,0.0043685481,0.0054716760,0.3644853160,-0.1199377492,9.7274715586
1520616233848586234,-0.0280261929,0.0052504783,0.0027705527,0.3548647743,-0.1535129318,9.6927336219
1520616233853600234,-0.0240051059,0.0046656424,0.0041113684,0.3548647743,-0.1475172297,9.6683227522
1520616233858617234,-0.0219925590,0.0064154656,0.0038504272,0.3897392379,-0.1247362778,9.6923661112
1520616233863633234,-0.0194823385,0.0058402370,0.0014064008,0.3885366702,-0.1355284479,9.6947126282
1520616233868649234,-0.0169697893,0.0058426784,0.0008606417,0.3993597796,-0.1415249930,9.7015859931
1520616233873663234,-0.0124484765,0.0049732107,-0.0002366121,0.4029674828,-0.1691055037,9.6783348936
1520616233878680234,-0.0129525247,0.0043924301,-0.0010517625,0.5124011447,-0.1978933969,9.7133242602
1520616233883694234,-0.0139602722,0.0023516161,-0.0007949114,0.5051857384,-0.2398627498,9.7250568570
1520616233888711234,-0.0086859920,-0.0011487581,0.0013329776,0.5148062801,-0.2638463075,9.6180693595
1520616233893726234,-0.0054238627,-0.0061075710,0.0037240308,0.5641115563,-0.2326724966,9.6466126482
1520616233898742234,-0.0026606380,-0.0093226443,0.0077526314,0.6410758899,-0.2458690355,9.6644706906
1520616233903758234,0.0031154871,-0.0151619105,0.0128378070,0.6446835931,-0.2602590015,9.6121531296
1520616233908775234,0.0076361727,-0.0207124698,0.0187391771,0.6062014263,-0.2818405320,9.6520616340
1520616233913790234,0.0131603443,-0.0250861707,0.0205893842,0.5556935823,-0.2734426153,9.6095457346
1520616233918806234,0.0174287274,-0.0282919121,0.0213686336,0.5124011447,-0.2566512777,9.6169236096
1520616233923821234,0.0232095728,-0.0259512871,0.0186702247,0.4739189778,-0.2722371060,9.6033676454
1520616233928837234,0.0264789745,-0.0206897886,0.0130227090,0.4546778944,-0.2482527990,9.5942343879
1520616233933852234,0.0325180774,-0.0104692996,0.0057845765,0.4402470819,-0.2206714454,9.6873194701
1520616233938869234,0.0395639595,0.0009171214,-0.0014465306,0.4835395195,-0.1571203747,9.6589446582
1520616233943884234,0.0466065406,0.0093875118,-0.0078882309,0.5220216864,-0.1667164952,9.6550930192
1520616233948900234,0.0528913950,0.0140652374,-0.0127341557,0.5520858792,-0.1715153984,9.6780479493
1520616233953915234,0.0551574008,0.0190276732,-0.0156765687,0.6422784577,-0.1571327378,9.6213731282
1520616233958930234,0.0611916111,0.0222396365,-0.0172865915,0.6771529213,-0.1415466284,9.6489099350
1520616233963947234,0.0662188226,0.0242863963,-0.0191741856,0.6615195411,-0.1499393938,9.6897453245
1520616233968961234,0.0692388935,0.0266142834,-0.0175387262,0.6687349473,-0.1415459728,9.6815319011
1520616233973978234,0.0720048076,0.0274880631,-0.0169960991,0.6555067025,-0.1235578362,9.6897781243
1520616233978995234,0.0765341651,0.0301042833,-0.0140084875,0.6434810254,-0.0983749507,9.7096270660
1520616233984010234,0.0788021429,0.0335966847,-0.0120921897,0.6278476451,-0.1103651374,9.6807373263
1520616233989026234,0.0805680562,0.0394287066,-0.0134037246,0.6675323796,-0.1223596324,9.7303349428
1520616233994040234,0.0810788789,0.0446701829,-0.0120119130,0.7060145464,-0.1187652082,9.7090382818
1520616233999057234,0.0838485292,0.0469950578,-0.0092938033,0.7048119787,-0.1223625358,9.6474598653
1520616234004072234,0.0848528384,0.0440714083,-0.0055302585,0.6927863016,-0.1391495652,9.6661875899
1520616234009089234,0.0846000851,0.0420272476,-0.0039220780,0.7144325204,-0.1451469532,9.6531991621
1520616234014104234,0.0856161400,0.0472601796,0.0007153508,0.7889917186,-0.1523476026,9.6408590251
1520616234019120234,0.0858772829,0.0504472970,0.0075029855,0.7481044164,-0.1307598905,9.6365873731
1520616234024135234,0.0858802624,0.0480958248,0.0150604859,0.7817763124,-0.1439530577,9.6711368129
1520616234029151234,0.0876410204,0.0472128908,0.0185676462,0.7517121195,-0.1655352438,9.6226404413
1520616234034167234,0.0851316781,0.0477852057,0.0220938562,0.7673454998,-0.1691338827,9.6771125494
1520616234039183234,0.0828740737,0.0483561621,0.0261606914,0.7829788801,-0.1691351002,9.6665010881
1520616234044198234,0.0846389206,0.0495085493,0.0313066887,0.7925994218,-0.1619410070,9.6280496812
1520616234049213234,0.0828839138,0.0500797027,0.0353725903,0.7288633330,-0.1691308855,9.6449470805
1520616234054229234,0.0811238027,0.0465700158,0.0399484606,0.7084196819,-0.1811206976,9.6405091841
1520616234059244234,0.0801191758,0.0456896410,0.0421080254,0.7288633330,-0.1415506558,9.6449201857
1520616234064260234,0.0791140237,0.0453964057,0.0426487610,0.6747477859,-0.1127670709,9.6767967359
1520616234069275234,0.0786148172,0.0491900351,0.0405142274,0.6290502128,-0.1175600736,9.7190833877
1520616234074293234,0.0773643134,0.0561944264,0.0362411807,0.6110116971,-0.1175586687,9.7029889482
1520616234079308234,0.0758596529,0.0617447103,0.0308753018,0.6543041348,-0.0887826703,9.6804587669
1520616234084323234,0.0751113469,0.0669944355,0.0290228962,0.7024068433,-0.0540113444,9.6962266692
1520616234089339234,0.0728521705,0.0707902894,0.0258094461,0.7096222496,-0.0576093276,9.7356728413
1520616234094355234,0.0710944469,0.0734193453,0.0231272619,0.7432941455,-0.1031792862,9.6993630720
1520616234099371234,0.0665697037,0.0722513065,0.0233973165,0.7252556298,-0.1139701451,9.7239541950
1520616234104386234,0.0635467277,0.0672987734,0.0225534871,0.7348761716,-0.0803949625,9.7215035251
1520616234109402234,0.0617857032,0.0670117987,0.0206607098,0.6867734630,-0.0959800416,9.6778254585
1520616234114418234,0.0590210201,0.0667193311,0.0206636206,0.7120273850,-0.1007785702,9.7031514967
1520616234119433234,0.0562522049,0.0646843839,0.0184888258,0.6951914370,-0.1187643653,9.7091436273
1520616234124449234,0.0532400062,0.0670135502,0.0187827571,0.6759503536,-0.1463430965,9.7198170986
1520616234129466234,0.0494710138,0.0696447322,0.0150221232,0.6843683276,-0.1643308584,9.6965098243
1520616234134481234,0.0467088830,0.0713926847,0.0147700497,0.7084196819,-0.1607353104,9.7102179426
1520616234139497234,0.0457046560,0.0722671729,0.0145080400,0.6963940047,-0.1691283567,9.7068567466
1520616234144512234,0.0411818926,0.0725560568,0.0147892100,0.7493069841,-0.1751281799,9.6993747071
1520616234149527234,0.0386662658,0.0711003349,0.0139711241,0.7889917186,-0.1583433047,9.7117556530
1520616234154542234,0.0351437227,0.0664302482,0.0163770019,0.7769660415,-0.1283638575,9.7745992436
1520616234159559234,0.0323743273,0.0608848465,0.0193159021,0.7288633330,-0.1247626899,9.8110904004
1520616234164575234,0.0298544312,0.0556382120,0.0195510997,0.7144325204,-0.1235624255,9.8030946841
1520616234169590234,0.0268323766,0.0503899237,0.0203283225,0.7036094110,-0.1151675996,9.7950568365
1520616234174606234,0.0258215476,0.0454323508,0.0216451265,0.6867734630,-0.0683998119,9.7591486405
1520616234179622234,0.0243153346,0.0451338197,0.0240806168,0.6410758899,-0.0719936741,9.7898126835
1520616234184638234,0.0197865415,0.0401741399,0.0256745007,0.6675323796,-0.0600043304,9.8081377821
1520616234189653234,0.0172690644,0.0363829712,0.0264619055,0.6627221088,-0.0767919216,9.8453895796
1520616234194668234,0.0142499108,0.0322958505,0.0288712961,0.6807606245,-0.0504122372,9.8056753839
1520616234199686234,0.0124912502,0.0293667474,0.0342632502,0.6831657599,-0.0276287565,9.7812247333
1520616234204699234,0.0104756650,0.0244073238,0.0361230128,0.7024068433,-0.0264311146,9.7938198665
1520616234209716234,0.0094672981,0.0206123752,0.0385308927,0.6567092702,-0.0240292747,9.8244780628
1520616234214731234,0.0079560669,0.0156473210,0.0425540890,0.6531015671,-0.0731937511,9.8233989769
1520616234219747234,0.0041837657,0.0124355154,0.0444304572,0.6591144056,-0.0695967981,9.8152019360
1520616234224764234,0.0056877284,0.0086437367,0.0460220321,0.6494938639,-0.0456132404,9.8036507501
1520616234229779234,0.0061873779,0.0063121289,0.0462738599,0.6783554890,-0.0588060329,9.8126798431
1520616234234795234,0.0069364327,0.0019380142,0.0475918429,0.6903811662,-0.0528112673,9.8020976503
1520616234239811234,0.0061778709,-0.0021445782,0.0486443035,0.7000017079,-0.0540111571,9.8171130505
1520616234244826234,0.0066691660,-0.0088389411,0.0458867801,0.6543041348,-0.0528084576,9.8222052492
1520616234249842234,0.0106815498,-0.0129072796,0.0423310927,0.6098091294,-0.0779869410,9.8505543473
1520616234254857234,0.0099203574,-0.0155176524,0.0377132048,0.5677192594,-0.0228232034,9.8148837721
1520616234259873234,0.0109140346,-0.0207476115,0.0322604045,0.5713269626,-0.0168277823,9.8253021058
1520616234264889234,0.0116553113,-0.0274375053,0.0278791390,0.6206322388,0.0011554840,9.8375882419
1520616234269904234,0.0109020734,-0.0274399860,0.0286921769,0.6110116971,0.0143467779,9.8469661712
1520616234274922234,0.0121568974,-0.0280193490,0.0276032135,0.5977834523,-0.0000418769,9.8320010875
1520616234279936234,0.0119081038,-0.0271496645,0.0292336249,0.6122142648,0.0275372289,9.8283473002
1520616234284952234,0.0141709419,-0.0245183049,0.0262734273,0.5833526397,-0.0084347359,9.8577169006
1520616234289967234,0.0144216684,-0.0251017039,0.0265390603,0.5905680460,-0.0300198255,9.8518569986
1520616234294983234,0.0136740602,-0.0216104840,0.0284609587,0.5917706137,-0.0108336724,9.8274215610
1520616234299999234,0.0136766124,-0.0195700639,0.0282059744,0.5893654783,-0.0048377830,9.8216284047
1520616234305014234,0.0126725187,-0.0181106213,0.0271367732,0.5580987177,-0.0084327691,9.8358819716
1520616234310030234,0.0129230256,-0.0186932919,0.0271318603,0.5953783168,-0.0300202002,9.8215944355
1520616234315047234,0.0131724348,-0.0192723204,0.0257742179,0.6122142648,-0.0360172135,9.8133014038
1520616234320060234,0.0151877064,-0.0166534426,0.0274137673,0.5641115563,-0.0492040118,9.8207553325
1520616234325078234,0.0141833971,-0.0137297931,0.0236502225,0.5893654783,-0.0468076978,9.8274800513
1520616234330093234,0.0146872728,-0.0119776469,0.0223098981,0.6074039940,-0.0444108218,9.8354371445
1520616234335108234,0.0164471173,-0.0096378687,0.0193484108,0.5785423689,-0.0540016974,9.8229438371
1520616234340124234,0.0164474741,-0.0075901643,0.0163879676,0.6170245357,-0.0600003966,9.8179265461
1520616234345140234,0.0182055113,-0.0078786743,0.0155708397,0.5929731814,-0.1235529659,9.7949797432
1520616234350157234,0.0166922219,-0.0107880113,0.0136575879,0.6278476451,-0.1367462267,9.7993017351
1520616234355171234,0.0144279332,-0.0139999547,0.0158017017,0.6170245357,-0.0971737498,9.7796120452
1520616234360188234,0.0159355067,-0.0139986355,0.0155283555,0.5845552074,-0.0719892720,9.8240649958
1520616234365203234,0.0149258225,-0.0177892135,0.0163129599,0.5821500720,-0.0516036975,9.8577707018
1520616234370218234,0.0129122602,-0.0215845558,0.0187227067,0.5737320980,-0.0563996036,9.8462358751
1520616234375235234,0.0113981318,-0.0262472990,0.0186899376,0.5617064209,-0.1115591265,9.8243259801
1520616234380250234,0.0101374625,-0.0276974296,0.0159756969,0.5075908738,-0.0971652267,9.8213522437
1520616234385267234,0.0093796965,-0.0297337745,0.0146088060,0.5087934415,-0.0863730566,9.7980871355
1520616234390282234,0.0098858147,-0.0268182755,0.0140890116,0.5244268218,-0.0839759933,9.7921219113
1520616234395298234,0.0093873100,-0.0233196728,0.0133049844,0.5352499312,-0.0719854320,9.7745727131
1520616234400314234,0.0096401927,-0.0221540362,0.0133134100,0.5280345249,-0.0647900275,9.7467444725
1520616234405328234,0.0098930793,-0.0195249211,0.0108980380,0.5364524989,-0.0647906831,9.7745539920
1520616234410344234,0.0103976136,-0.0177749602,0.0103693512,0.5388576343,-0.0563968875,9.7454687977
1520616234415360234,0.0124099801,-0.0177807284,0.0128005305,0.5629089886,-0.0587970415,9.7429127473
1520616234420375234,0.0154265305,-0.0183681434,0.0149548508,0.5617064209,-0.0516021053,9.7533767319
1520616234425392234,0.0144186536,-0.0195304332,0.0135950959,0.5220216864,-0.0216205039,9.7455987576
1520616234430407234,0.0144169325,-0.0227444042,0.0168171927,0.5256293895,-0.0156250828,9.7478820837
1520616234435424234,0.0146612374,-0.0274042729,0.0159695189,0.5196165509,-0.0336117209,9.7677145963
1520616234440440234,0.0141549898,-0.0294412478,0.0148727072,0.5388576343,-0.0228209556,9.7268417529
1520616234445455234,0.0149077376,-0.0320714259,0.0178273041,0.5388576343,-0.0204226748,9.7245151263
1520616234450470234,0.0141475920,-0.0373195565,0.0188708723,0.5580987177,-0.0300172967,9.7545529429
1520616234455486234,0.0161520000,-0.0413966953,0.0182949236,0.5965808846,-0.0552022427,9.7297979142
1520616234460503234,0.0148934280,-0.0466588630,0.0244797973,0.5821500720,-0.0564002592,9.7473717035
1520616234465518234,0.0133822870,-0.0507461215,0.0271569334,0.6230373742,-0.0588017245,9.7504625022
1520616234470532234,0.0123751942,-0.0542525992,0.0306492199,0.6158219680,-0.0432123370,9.7435446674
1520616234475549234,0.0121199318,-0.0586300214,0.0330512534,0.5953783168,-0.0587995703,9.7588667261
1520616234480565234,0.0123674435,-0.0627151338,0.0351840306,0.5665166917,-0.0671913055,9.7626422647
1520616234485581234,0.0143758583,-0.0627077903,0.0327453838,0.5532884469,-0.0779825390,9.7279172258
1520616234490596234,0.0143782340,-0.0609594831,0.0327587223,0.5629089886,-0.0983686755,9.7197084564
1520616234495612234,0.0146348960,-0.0586355928,0.0354814992,0.5340473635,-0.0959681468,9.7118520314
1520616234500628234,0.0174048599,-0.0539701720,0.0347002969,0.5292370926,-0.0695866828,9.7293052855
1520616234505642234,0.0194151251,-0.0516273817,0.0306561594,0.5075908738,-0.0791781204,9.7353360510
1520616234510660234,0.0174037269,-0.0507467315,0.0279611035,0.5268319572,-0.0911710231,9.7642140623
1520616234515674234,0.0196674864,-0.0484111270,0.0266219582,0.4859446550,-0.1007609621,9.7588106692
1520616234520689234,0.0209177863,-0.0495608758,0.0209292684,0.5304396603,-0.0815781807,9.7293052738
1520616234525705234,0.0214112847,-0.0533355659,0.0160296087,0.5749346657,-0.0827807866,9.7288733561
1520616234530722234,0.0234178490,-0.0556636692,0.0151964526,0.6278476451,-0.0731917842,9.7481054261
1520616234535738234,0.0234146382,-0.0577019041,0.0146397992,0.5893654783,-0.0611973829,9.7333604231
1520616234540753234,0.0231561218,-0.0638247197,0.0159463106,0.6013911554,-0.0935751109,9.7309506568
1520616234545768234,0.0271674471,-0.0696457360,0.0140005600,0.6062014263,-0.0899780643,9.7506567758
1520616234550785234,0.0311823791,-0.0731371329,0.0126136860,0.6146194003,-0.0899787199,9.7459262646
1520616234555800234,0.0329394440,-0.0757640034,0.0144842324,0.5941757491,-0.1139599361,9.7531215010
1520616234560816234,0.0354521265,-0.0751766077,0.0131312818,0.5629089886,-0.0971695351,9.7394637343
1520616234565832234,0.0372142567,-0.0719663181,0.0115291933,0.5689218272,-0.0803820374,9.8044688997
1520616234570846234,0.0384722955,-0.0690439678,0.0085730857,0.5629089886,-0.0372125139,9.7882153134
1520616234575863234,0.0402367151,-0.0634996883,0.0059065983,0.5244268218,-0.0096292870,9.7478879420
1520616234580878234,0.0432567508,-0.0579520028,0.0021555937,0.5027806029,-0.0024327586,9.7724966400
1520616234585895234,0.0455233290,-0.0524060695,-0.0010529189,0.5172114155,0.0155532238,9.7549064800
1520616234590911234,0.0457781994,-0.0468565532,-0.0058809731,0.5051857384,0.0227490030,9.7213143398
1520616234595926234,0.0455293665,-0.0442305488,-0.0072132281,0.5148062801,-0.0084293973,9.7305482538
1520616234600941234,0.0482997303,-0.0378102650,-0.0104160050,0.5893654783,0.0023570596,9.7577034712
1520616234605958234,0.0488084438,-0.0331471872,-0.0106519149,0.6398733222,-0.0036425763,9.7502448418
1520616234610973234,0.0498150896,-0.0325662096,-0.0098376980,0.6170245357,-0.0480089924,9.7749155264
1520616234615989234,0.0515773883,-0.0319907641,-0.0068605140,0.6350630514,-0.0516078186,9.7805541784
1520616234621004234,0.0500713517,-0.0319971823,-0.0046933465,0.6470887285,-0.0420156318,9.7804277731
1520616234626020234,0.0493182471,-0.0314147086,-0.0046875002,0.6374681868,-0.0659976910,9.7724097927
1520616234631036234,0.0505799280,-0.0293825374,-0.0016982673,0.5977834523,-0.0384143705,9.7750934526
1520616234636052234,0.0498297676,-0.0279317376,0.0004786154,0.5653141240,-0.0300178587,9.7614555763
1520616234641067234,0.0503334708,-0.0250082258,-0.0030171838,0.5376550666,-0.0551976534,9.7361821818
1520616234646083234,0.0518444825,-0.0200424432,-0.0073109260,0.5749346657,-0.0420100122,9.7892650842
1520616234651099234,0.0515961828,-0.0150766214,-0.0118719471,0.5809475043,-0.0252225146,9.7589744453
1520616234656115234,0.0526067491,-0.0098254786,-0.0139981656,0.6037962908,-0.0384148388,9.7541163362
1520616234661129234,0.0506027840,-0.0042863181,-0.0153049227,0.6230373742,-0.0384163373,9.7783340783
1520616234666145234,0.0485967960,0.0000887612,-0.0171616639,0.6242399420,-0.0264250267,9.7608785205
1520616234671160234,0.0486019906,0.0050473972,-0.0190176927,0.6374681868,-0.0420148825,9.7933049970
1520616234676177234,0.0488568531,0.0076699564,-0.0189981517,0.6723426505,-0.0372210369,9.7813394335
1520616234681193234,0.0455968722,0.0114508479,-0.0167988170,0.6831657599,-0.0324253182,9.7974994260
1520616234686208234,0.0418368458,0.0172719626,-0.0148535332,0.6314553482,-0.0300230100,9.8317025794
1520616234691225234,0.0423438852,0.0198917065,-0.0137522752,0.6615195411,-0.0036442622,9.8104656364
1520616234696241234,0.0398352525,0.0230959517,-0.0137231541,0.6182271034,0.0287359010,9.8364226132
1520616234701255234,0.0350673492,0.0277547767,-0.0131376252,0.6170245357,0.0131471692,9.8492331032
1520616234706272234,0.0330587228,0.0306751186,-0.0158171195,0.5869603429,-0.0096341573,9.8623315306
1520616234711287234,0.0287874817,0.0324268510,-0.0176896680,0.6170245357,0.0179437309,9.8562012896
1520616234716303234,0.0262789784,0.0347525721,-0.0160439407,0.6555067025,0.0047501891,9.8418938630
1520616234721317234,0.0230123131,0.0347505638,-0.0157673274,0.6434810254,0.0311322150,9.8536066277
1520616234726334234,0.0192470059,0.0361987253,-0.0130437521,0.6855708953,0.0239340944,9.8334475195
1520616234731350234,0.0117173638,0.0414334088,-0.0102842759,0.6651272442,0.0131434228,9.8406298933
1520616234736366234,0.0059398155,0.0405453358,-0.0059514762,0.6615195411,0.0167411250,9.8639043795
1520616234741381234,0.0029245784,0.0396649017,-0.0040587235,0.6555067025,0.0083476104,9.8395660671
1520616234746398234,-0.0013372576,0.0446051101,0.0003157375,0.6470887285,-0.0084396999,9.8140972063
1520616234751412234,-0.0050962726,0.0510082654,0.0025360134,0.6086065617,-0.0288220900,9.8342480941
1520616234756429234,-0.0083548892,0.0559554234,0.0044736946,0.5869603429,-0.0408118084,9.8309840466
1520616234761445234,-0.0151302389,0.0614817868,0.0072339937,0.5869603429,-0.0276212637,9.8321333278
1520616234766460234,-0.0183877108,0.0675959398,0.0086394753,0.6074039940,-0.0492073835,9.8400903977
1520616234771475234,-0.0201355823,0.0763389717,0.0078977973,0.6182271034,-0.0635979116,9.8144319172
1520616234776493234,-0.0226392008,0.0827462615,0.0087630101,0.6086065617,-0.0671945836,9.8400962327
1520616234781508234,-0.0256538184,0.0836199620,0.0085047341,0.6086065617,-0.0719911452,9.8180201749
1520616234786522234,-0.0253981640,0.0868252903,0.0085287213,0.6086065617,-0.0695928644,9.7982613890
1520616234791539234,-0.0263986940,0.0909071936,0.0074795278,0.6037962908,-0.0480079621,9.8192057523
1520616234796554234,-0.0273985223,0.0946940702,0.0077808407,0.5689218272,-0.0348147013,9.8032623209
1520616234801569234,-0.0273978519,0.0990823204,0.0013210855,0.5532884469,0.0035590098,9.8115120754
1520616234806586234,-0.0278986383,0.1031738902,-0.0032461381,0.5641115563,0.0299392562,9.8601910505
1520616234811602234,-0.0279028096,0.1031877304,-0.0083865101,0.5689218272,0.0551208304,9.8705789698
1520616234816616234,-0.0301688036,0.1026157302,-0.0127154901,0.5881629106,0.0323356638,9.8727381942
1520616234821632234,-0.0284134911,0.1014581656,-0.0154331085,0.6266450774,0.0299343858,9.8723659711
1520616234826649234,-0.0301782126,0.0979637758,-0.0165387020,0.6230373742,0.0239389647,9.9095955395
1520616234831664234,-0.0319416600,0.0947578568,-0.0165598889,0.6170245357,0.0539179436,9.9212462708
1520616234836679234,-0.0334566234,0.0898051859,-0.0171359728,0.6338604837,0.0479209302,9.9129532391
1520616234841695234,-0.0364780665,0.0833840753,-0.0136621833,0.6242399420,0.0347311349,9.9118975983
1520616234846712234,-0.0397481699,0.0784176035,-0.0093651741,0.6494938639,0.0251360446,9.9372283138
1520616234851726234,-0.0440279537,0.0711240322,-0.0067073579,0.5965808846,0.0311358678,9.9110081786
1520616234856743234,-0.0480583282,0.0632514326,-0.0054071842,0.5977834523,0.0251400720,9.8587058423
1520616234861758234,-0.0475538880,0.0626601192,-0.0021660130,0.5629089886,0.0083548222,9.8520887960
1520616234866774234,-0.0510782305,0.0582887014,-0.0024633711,0.5893654783,-0.0312188723,9.8611670246
1520616234871789234,-0.0543517565,0.0542116802,-0.0038411564,0.6086065617,-0.0420126347,9.8342609568
1520616234876806234,-0.0558702875,0.0451730701,-0.0020134504,0.5845552074,-0.0863789571,9.8252411718
1520616234881822234,-0.0576366360,0.0408059836,-0.0036668050,0.5472756083,-0.0827786324,9.8070062173
1520616234886837234,-0.0561323675,0.0364277937,-0.0007269468,0.5136037124,-0.0791785887,9.7898982916
1520616234891853234,-0.0576437672,0.0340975836,-0.0012830229,0.4198034308,-0.0503919130,9.8128639570
1520616234896869234,-0.0584019213,0.0346968112,-0.0074997322,0.4210059985,-0.0527902875,9.7733416961
1520616234901883234,-0.0563874377,0.0381963985,-0.0082884266,0.4149931599,-0.0395992746,9.7664144950
1520616234906900234,-0.0548740973,0.0437398511,-0.0106839014,0.4390445142,-0.0431985690,9.8440475468
1520616234911916234,-0.0553727746,0.0484098194,-0.0136234034,0.4739189778,-0.0192184767,9.8181175464
1520616234916931234,-0.0490906527,0.0492915334,-0.0155222235,0.4979703321,-0.0491988605,9.8365069820
1520616234921946234,-0.0483411981,0.0466722817,-0.0166258151,0.4979703321,-0.0563937030,9.8562704452
1520616234926963234,-0.0465846153,0.0443397094,-0.0158352291,0.5196165509,-0.0312134400,9.8362787509
1520616234931978234,-0.0418197033,0.0376419212,-0.0167068655,0.5869603429,-0.0228247020,9.8135343472
1520616234936993234,-0.0383123832,0.0309472829,-0.0189288978,0.5677192594,-0.0408103098,9.7695776979
1520616234942010234,-0.0360623922,0.0239622247,-0.0216919113,0.5605038532,-0.0288183436,9.7917169700
1520616234947025234,-0.0312985348,0.0169752373,-0.0233774084,0.5172114155,0.0059601004,9.8281309038
1520616234952040234,-0.0265290477,0.0134819505,-0.0239540450,0.5280345249,0.0047601171,9.7815409695
1520616234957056234,-0.0230123146,0.0129027451,-0.0247766630,0.5629089886,0.0287402094,9.8172045986
1520616234962072234,-0.0205035055,0.0099906128,-0.0250741070,0.5701243949,0.0311379283,9.8438613405
1520616234967087234,-0.0152306719,0.0073731333,-0.0261860995,0.5544910146,0.0467279714,9.8439983049
1520616234972103234,-0.0149801258,0.0050341428,-0.0232283461,0.5773398012,0.0575184556,9.8646839759
1520616234977119234,-0.0124691644,0.0024075676,-0.0213591998,0.5941757491,0.0347334764,9.8726773303
1520616234982136234,-0.0094572793,-0.0022621445,-0.0181538191,0.5965808846,0.0095513401,9.8459491653
1520616234987152234,-0.0092106929,-0.0075149803,-0.0152182965,0.5629089886,-0.0228228288,9.8323627516
1520616234992167234,-0.0077039114,-0.0080964302,-0.0154960889,0.5184139832,-0.0084296783,9.8420789583
1520616234997183234,-0.0064526941,-0.0110054126,-0.0171439287,0.5099960092,0.0131555049,9.8502748532
1520616235002197234,-0.0069574519,-0.0142181236,-0.0144619903,0.4679061393,0.0059639405,9.8076922199
1520616235007214234,-0.0056977901,-0.0118865551,-0.0144465392,0.4582855976,0.0047655493,9.8008141660
1520616235012231234,-0.0059523820,-0.0118757271,-0.0185042609,0.4534753267,0.0203547495,9.8450072551
1520616235017246234,-0.0054489023,-0.0104149654,-0.0198468084,0.4787292487,0.0191536422,9.8412761864
1520616235022260234,-0.0079557786,-0.0072165476,-0.0176533201,0.4462599204,0.0107621881,9.8927347422
1520616235027277234,-0.0087090126,-0.0057555498,-0.0192640799,0.4955651967,0.0047626459,9.9003956893
1520616235032293234,-0.0087087460,-0.0045856411,-0.0208784629,0.5172114155,0.0071592409,9.8827505003
1520616235037309234,-0.0147349938,-0.0022627552,-0.0186851097,0.5568961500,0.0107535713,9.8509828387
1520616235042324234,-0.0154871379,-0.0037323566,-0.0140955447,0.5641115563,-0.0432083097,9.8962888428
1520616235047340234,-0.0184991681,-0.0040380343,-0.0092223410,0.6037962908,-0.0024406260,9.9028356821
1520616235052354234,-0.0200017744,-0.0020069461,-0.0062279742,0.5977834523,0.0047546848,9.8645364409
1520616235057370234,-0.0210020927,-0.0008527283,-0.0021590265,0.6122142648,-0.0072378434,9.8504619462
1520616235062387234,-0.0187390429,-0.0011490542,-0.0000010829,0.6074039940,-0.0084366091,9.8365642083
1520616235067403234,-0.0182336343,-0.0008654855,0.0029762115,0.6218348065,-0.0108360139,9.8166696390
1520616235072417234,-0.0197416076,-0.0026216677,0.0056711323,0.5809475043,-0.0288199358,9.8414901741
1520616235077434234,-0.0187358438,-0.0035012549,0.0078269634,0.5220216864,-0.0192222231,9.8455407990
1520616235082449234,-0.0162219734,-0.0020397055,0.0064806821,0.4642984361,-0.0515945189,9.7868648722
1520616235087466234,-0.0139583434,0.0011744231,0.0035249306,0.4907549258,-0.0372068943,9.7912419047
1520616235092481234,-0.0124487431,0.0038033020,0.0013777709,0.5003754675,-0.0084282734,9.7423101540
1520616235097497234,-0.0114382630,0.0096401276,-0.0018261850,0.4967677644,-0.0144236945,9.7481618357
1520616235102511234,-0.0089187159,0.0157660147,-0.0039485346,0.4667035716,-0.0072265105,9.7437988702
1520616235107529234,-0.0066523611,0.0198491979,-0.0050037955,0.4751215456,0.0059633785,9.7297583447
1520616235112543234,-0.0038834087,0.0239325780,-0.0060599899,0.4727164101,-0.0360063490,9.7751462959
1520616235117560234,0.0014000257,0.0283046850,-0.0057658989,0.5448704729,-0.0084317388,9.7546606505
1520616235122574234,0.0049254229,0.0329653021,-0.0046546801,0.4811343841,0.0203525953,9.7122536280
1520616235127592234,0.0064358582,0.0358841087,-0.0062585249,0.4534753267,0.0299478729,9.7171620654
1520616235132606234,0.0071923539,0.0390954613,-0.0083998383,0.4606907330,0.0155576258,9.7473216099
1520616235137623234,0.0097057421,0.0408513089,-0.0108260801,0.4534753267,-0.0048271994,9.7997081970
1520616235142639234,0.0109633850,0.0434822747,-0.0137844108,0.4606907330,-0.0012303401,9.7938237389
1520616235147654234,0.0099557747,0.0434898936,-0.0167585488,0.4414496496,0.0263513882,9.7846869733
1520616235152669234,0.0091948881,0.0402931096,-0.0200281533,0.4570830299,0.0059647834,9.7415553600
1520616235157685234,0.0096932164,0.0365023940,-0.0189758033,0.4402470819,0.0107626564,9.7812274479
1520616235162701234,0.0069237818,0.0327133121,-0.0189995694,0.4895523581,0.0191527993,9.7702800596
1520616235167717234,0.0041554018,0.0292134295,-0.0182094748,0.4811343841,0.0203525953,9.7494422345
1520616235172732234,0.0021404321,0.0245446619,-0.0160769432,0.4582855976,0.0143586727,9.7717512124
1520616235177749234,-0.0036428321,0.0207485711,-0.0139307415,0.4787292487,0.0059630976,9.7855061393
1520616235182763234,-0.0071651949,0.0178340759,-0.0142169842,0.4931600612,-0.0060294306,9.8492952895
1520616235187780234,-0.0109415459,0.0108306293,-0.0110167866,0.4558804621,0.0371425281,9.8635617775
1520616235192795234,-0.0167188316,0.0096489865,-0.0058745723,0.4799318164,0.0455346379,9.8900488019
1520616235197811234,-0.0177238544,0.0084772271,-0.0037172306,0.5148062801,0.0143542707,9.9001990537
1520616235202826234,-0.0225008687,0.0049707294,-0.0007590350,0.4907549258,0.0143561439,9.8737038439
1520616235207843234,-0.0272800824,0.0000080375,0.0019174993,0.5256293895,0.0155525682,9.8408231972
1520616235212858234,-0.0292968594,-0.0072890183,0.0061943902,0.5797449366,0.0251414769,9.7891527809
1520616235217873234,-0.0333295235,-0.0174956079,0.0085589629,0.5424653375,0.0155512570,9.8220650231
1520616235222889234,-0.0386133617,-0.0250860565,0.0131102441,0.5364524989,0.0443310954,9.8348790678
1520616235227905234,-0.0406268338,-0.0280036031,0.0141739306,0.5124011447,0.0431338282,9.7897907240
1520616235232921234,-0.0393794938,-0.0358755921,0.0160053950,0.5244268218,0.0779079639,9.7663968835
1520616235237937234,-0.0393837200,-0.0399593461,0.0175975471,0.4763241133,0.0779117103,9.7703515176
1520616235242953234,-0.0451650005,-0.0408350357,0.0173310666,0.4667035716,0.0419382469,9.7821016778
1520616235247968234,-0.0469251939,-0.0422955613,0.0184054018,0.4438547850,0.0215546392,9.8067489757
1520616235252983234,-0.0466725347,-0.0425926748,0.0205670792,0.4318291079,0.0395426821,9.7929027587
1520616235258000234,-0.0504439931,-0.0425875957,0.0181391670,0.4426522173,0.0155590307,9.8265229747
1520616235263015234,-0.0516973234,-0.0417204903,0.0205830829,0.4450573527,-0.0180170884,9.8439644654
1520616235268030234,-0.0542045487,-0.0376428199,0.0208894193,0.4582855976,-0.0228146804,9.7845710454
1520616235273045234,-0.0567120445,-0.0361985367,0.0252339362,0.4835395195,-0.0372063323,9.7622585362
1520616235278062234,-0.0609777932,-0.0330015366,0.0277012375,0.4763241133,-0.0348074895,9.7692992916
1520616235283078234,-0.0614745416,-0.0295087613,0.0290815775,0.4871472227,-0.0911679324,9.7285738666
1520616235288094234,-0.0629813309,-0.0318542684,0.0342069652,0.5472756083,-0.1019648792,9.7279991379
1520616235293110234,-0.0614723540,-0.0324430026,0.0366346317,0.5184139832,-0.0851746654,9.6736429226
1520616235298125234,-0.0602136605,-0.0309863162,0.0369139594,0.5015780352,-0.1019613201,9.6540667169
1520616235303140234,-0.0619710783,-0.0289436715,0.0355800586,0.5340473635,-0.0983664276,9.6339907252
1520616235308157234,-0.0579468196,-0.0257339527,0.0345148614,0.5051857384,-0.1031607415,9.6273034602
1520616235313173234,-0.0556859652,-0.0260229943,0.0339673460,0.5075908738,-0.0875721033,9.6505077277
1520616235318188234,-0.0516621456,-0.0228118186,0.0323610570,0.5556935823,-0.1043638156,9.6558666160
1520616235323202234,-0.0466336992,-0.0187202680,0.0285952032,0.5544910146,-0.1199525475,9.6094077643
1520616235328220234,-0.0436202184,-0.0178340065,0.0245380833,0.5496807438,-0.0647917134,9.5896443477
1520616235333235234,-0.0421105750,-0.0154979690,0.0229297923,0.6374681868,-0.1247555717,9.6388205355
1520616235338251234,-0.0378301837,-0.0108406987,0.0253923404,0.7024068433,-0.1823193697,9.6754331973
1520616235343267234,-0.0322928591,-0.0061843930,0.0283936467,0.6446835931,-0.1391458188,9.6468993450
1520616235348282234,-0.0260165865,-0.0087956512,0.0251154201,0.5809475043,-0.1031666421,9.6009988746
1520616235353297234,-0.0222568188,-0.0128597175,0.0199369241,0.6939888693,-0.1271582546,9.5836519707
1520616235358313234,-0.0152135007,-0.0079041522,0.0202321942,0.6747477859,-0.1583344070,9.6175718291
1520616235363329234,-0.0094282175,-0.0044074587,0.0210597742,0.7012042756,-0.1031760081,9.6091255206
1520616235368344234,-0.0054029905,-0.0003228579,0.0197307004,0.6975965724,-0.1283576760,9.6068609040
1520616235373360234,0.0036516435,0.0058012184,0.0192194913,0.6807606245,-0.1115683988,9.6302512831
1520616235378377234,0.0101880985,0.0084291528,0.0181451807,0.7048119787,-0.1295573784,9.6439804495
1520616235383392234,0.0127001655,0.0087258924,0.0165194612,0.6843683276,-0.1103695394,9.7011057798
1520616235388408234,0.0139584160,0.0087205573,0.0186814947,0.7132299527,-0.1223631914,9.7577816056
1520616235393423234,0.0202418120,0.0098907420,0.0178670813,0.7661429321,-0.1211681721,9.7502925501
1520616235398439234,0.0222506227,0.0101894701,0.0154306576,0.7805737446,-0.1343598406,9.7176249214
1520616235403454234,0.0247593456,0.0078630206,0.0140554762,0.8118405052,-0.1439553992,9.7417349677
1520616235408470234,0.0262653352,0.0066988016,0.0137732376,0.7865865832,-0.1415551515,9.7431405791
1520616235413487234,0.0252575837,0.0031945092,0.0164538864,0.8455124011,-0.1343648983,9.7262900000
1520616235418501234,0.0245034638,0.0017314637,0.0186085383,0.8202584792,-0.1283672293,9.7323406792
1520616235423517234,0.0277669613,-0.0005976041,0.0183141403,0.8611457814,-0.1283704137,9.7214834117
1520616235428533234,0.0290182178,-0.0052629064,0.0196289668,0.8827920002,-0.1463592060,9.7329117003
1520616235433549234,0.0302792792,-0.0049848698,0.0247692283,0.8431072657,-0.1439578343,9.6949448780
1520616235438565234,0.0305319462,-0.0023550263,0.0220833104,0.8563355106,-0.1847296390,9.7366930623
1520616235443581234,0.0317879582,-0.0020602358,0.0210010163,0.8695637554,-0.2015186352,9.7551749807
1520616235448596234,0.0335487201,-0.0014796913,0.0220843790,0.8719688908,-0.1871291374,9.7063274924
1520616235453611234,0.0322924023,-0.0011880706,0.0218183898,0.8984253805,-0.1943260405,9.7072391412
1520616235458628234,0.0350560740,-0.0014776437,0.0215404869,0.9164638962,-0.1571540923,9.6744872851
1520616235463644234,0.0332981191,-0.0032382949,0.0258591497,0.9789974173,-0.1391718562,9.6994282491
1520616235468660234,0.0327986381,-0.0035415313,0.0301865944,0.9645666047,-0.1379715919,9.7146754118
1520616235473674234,0.0327967406,-0.0070476152,0.0336770141,0.9753897141,-0.1151887668,9.7215207126
1520616235478690234,0.0320485522,-0.0070668498,0.0407126075,0.9838076881,-0.1187868437,9.7690901873
1520616235483706234,0.0312956162,-0.0091192202,0.0452977263,1.0198847195,-0.1235862152,9.7362036823
1520616235488722234,0.0295427618,-0.0082625097,0.0515302183,1.0391258029,-0.1391765392,9.7615987698
1520616235493738234,0.0313067737,-0.0074000502,0.0561329007,0.9741871464,-0.1307774986,9.7424662102
1520616235498754234,0.0315633454,-0.0059539556,0.0602017378,0.9465280890,-0.1283770636,9.7880567021
1520616235503768234,0.0262896689,-0.0065533609,0.0656180108,0.9645666047,-0.1679501025,9.7879197144
1520616235508785234,0.0275526239,-0.0042327188,0.0696916503,0.9994410684,-0.1739485207,9.7899104024
1520616235513801234,0.0250434109,-0.0045389281,0.0748344664,1.0391258029,-0.1559645052,9.8359923536
1520616235518817234,0.0242916158,-0.0068877820,0.0813111834,1.0703925635,-0.1655600637,9.7764280352
1520616235523832234,0.0237865874,-0.0127338803,0.0880313026,1.1172927043,-0.1631654356,9.7875906388
1520616235528848234,0.0220259941,-0.0159492689,0.0915272123,1.0667848603,-0.1811486082,9.7985590869
1520616235533864234,0.0205153353,-0.0203308255,0.0952843089,1.0583668863,-0.1739531101,9.7800397030
1520616235538879234,0.0190015519,-0.0273362998,0.0995624896,1.0583668863,-0.1811479526,9.7974788783
1520616235543895234,0.0182474280,-0.0302628238,0.1041409391,1.0619745895,-0.1895422165,9.8358026990
1520616235548910234,0.0182480435,-0.0299721677,0.1044137081,1.0355180998,-0.1619599263,9.8046554287
1520616235553925234,0.0187513468,-0.0288035189,0.1033394834,0.9970359330,-0.1451689632,9.7875814604
1520616235558942234,0.0167468094,-0.0238478559,0.1022988261,0.9898205267,-0.1259821545,9.8492266109
1520616235563958234,0.0157450954,-0.0191766277,0.0988191657,1.0391258029,-0.1259859946,9.8150445289
1520616235568973234,0.0119809330,-0.0165614712,0.1010105414,1.0331129644,-0.1439726326,9.7930398592
1520616235573988234,0.0129896488,-0.0136457753,0.1004898136,1.0427335061,-0.1379776798,9.8045618116
1520616235579005234,0.0127408120,-0.0124832493,0.1015813563,1.0162770164,-0.0996031257,9.8001333281
1520616235584020234,0.0099756467,-0.0124814186,0.1005043066,1.0619745895,-0.1056023869,9.7834243673
1520616235589036234,0.0089682952,-0.0142308480,0.1007633809,1.0595694540,-0.1103987613,9.7834524548
1520616235594051234,0.0089650883,-0.0148056043,0.0977829299,1.0631771572,-0.1331827103,9.7555481022
1520616235599067234,0.0082083809,-0.0150892715,0.0948061021,1.0559617509,-0.1439744122,9.7870067433
1520616235604083234,0.0082113761,-0.0115868297,0.0926684120,1.0258975581,-0.1703531600,9.7850008073
1520616235609099234,0.0082074635,-0.0133300379,0.0907612522,1.0222898549,-0.1931365470,9.7908688597
1520616235614115234,0.0059422653,-0.0118557906,0.0840129207,0.9814025527,-0.1991290647,9.7935969662
1520616235619131234,0.0074535396,-0.0071835778,0.0805285931,0.9958333653,-0.1751473802,9.7411366408
1520616235624146234,0.0084631415,-0.0013438385,0.0762424536,0.9958333653,-0.1835413631,9.7109290834
1520616235629161234,0.0026863578,0.0044976130,0.0703456402,1.0090616101,-0.1823432530,9.7491499089
1520616235634177234,0.0019361622,0.0091682113,0.0671360590,1.0451386415,-0.2291125393,9.7314122021
1520616235639193234,0.0031974039,0.0112018394,0.0695842000,1.0138718810,-0.2327075254,9.7108014504
1520616235644208234,0.0037003152,0.0135425821,0.0660839546,0.9886179590,-0.2027270479,9.7214773187
1520616235649225234,0.0029506018,0.0179188821,0.0639543339,0.9717820110,-0.1943317537,9.7286058679
1520616235654239234,0.0019511264,0.0222899846,0.0637190012,0.9994410684,-0.1451691506,9.7294508526
1520616235659256234,0.0019599709,0.0292853986,0.0629607176,0.9826051204,-0.1379729968,9.7365805711
1520616235664272234,0.0009619460,0.0342370848,0.0635414687,0.9922256621,-0.0996012525,9.7655031106
1520616235669287234,-0.0010420191,0.0397762454,0.0622347116,0.9801999850,-0.1319771073,9.7970296201
1520616235674304234,-0.0017904152,0.0441481748,0.0617283663,0.9212741671,-0.0983965862,9.8115161539
1520616235679319234,-0.0025406579,0.0476481359,0.0604037140,0.9200715993,-0.1175827393,9.8127087123
1520616235684334234,-0.0050561513,0.0467773683,0.0587784366,0.9573511984,-0.1643521192,9.7972835884
1520616235689350234,-0.0058121570,0.0461986745,0.0571521152,0.9152613285,-0.1847342283,9.7930645683
1520616235694366234,-0.0065646892,0.0473646457,0.0568918618,0.8996279482,-0.1739407469,9.8036655056
1520616235699382234,-0.0045540319,0.0485353420,0.0552737450,0.8611457814,-0.1679420477,9.7970613569
1520616235704397234,-0.0048054601,0.0494137677,0.0536576056,0.9224767348,-0.1895313520,9.7372161055
1520616235709413234,-0.0085748955,0.0505829280,0.0517796775,0.9549460630,-0.2171141105,9.7287919561
1520616235714429234,-0.0085689600,0.0534902174,0.0542368214,0.9381101150,-0.2099179568,9.7870560086
1520616235719444234,-0.0093254949,0.0520351847,0.0534154685,0.9116536254,-0.2195090196,9.7745392910
1520616235724460234,-0.0108362321,0.0511662678,0.0512472324,0.9369075473,-0.2614809013,9.7952530029
1520616235729475234,-0.0093290507,0.0523396810,0.0485478655,0.9501357922,-0.2458931061,9.8218383568
1520616235734492234,-0.0115918810,0.0526352784,0.0466604678,0.9272870056,-0.2099171138,9.8045935134
1520616235739507234,-0.0113440988,0.0511835533,0.0447550644,0.9188690316,-0.1907302114,9.7837381482
1520616235744523234,-0.0110986963,0.0465200424,0.0452601201,0.9092484899,-0.1919286026,9.8047515492
1520616235749538234,-0.0118604689,0.0403992151,0.0457559272,0.8695637554,-0.1751375459,9.7725814145
1520616235754554234,-0.0126246996,0.0345792420,0.0427368608,0.8407021303,-0.1583473321,9.7472787982
1520616235759571234,-0.0116315125,0.0267166241,0.0410516953,0.8755765940,-0.1559517674,9.7399641491
1520616235764585234,-0.0103806990,0.0205893002,0.0442492276,0.8779817294,-0.1319691462,9.7004044578
1520616235769600234,-0.0083754990,0.0170949303,0.0436777250,0.9441229536,-0.0660215743,9.6752913430
1520616235774617234,-0.0061191845,0.0103815890,0.0482216738,0.9898205267,-0.0960036439,9.6527950492
1520616235779633234,-0.0053691300,0.0021990794,0.0570860418,1.0102641778,-0.1247846063,9.6421648318
1520616235784648234,-0.0021061735,-0.0053967629,0.0648680051,0.9898205267,-0.1067959077,9.6307248381
1520616235789665234,0.0044187006,-0.0150237327,0.0699228805,0.9128561931,-0.1139847560,9.6372916975
1520616235794681234,0.0084316880,-0.0231918506,0.0739113550,0.9224767348,-0.1031932415,9.6639168440
1520616235799695234,0.0114408445,-0.0301940958,0.0776400428,0.9308947088,-0.1043930375,9.6510524944
1520616235804711234,0.0142004663,-0.0342753099,0.0786859693,0.9405152505,-0.0840083996,9.6625604147
1520616235809728234,0.0197206822,-0.0400993776,0.0780901479,0.9381101150,-0.0852073527,9.6509635546
1520616235814743234,0.0259988836,-0.0438878288,0.0791317633,0.9765922819,-0.1175871413,9.6424855573
1520616235819758234,0.0317758517,-0.0465102103,0.0799126585,0.9633640370,-0.1343740770,9.6368199639
1520616235824774234,0.0367948813,-0.0499975713,0.0771711881,0.9284895733,-0.1247782374,9.5906642977
1520616235829790234,0.0423176063,-0.0534883774,0.0757815137,0.9272870056,-0.0744142460,9.5638975795
1520616235834806234,0.0455787320,-0.0561022739,0.0730499795,1.0006436361,-0.1139915932,9.6608422514
1520616235839822234,0.0496027201,-0.0555259423,0.0760229630,1.0752028343,-0.1379802086,9.6334106138
1520616235844837234,0.0541289452,-0.0584605967,0.0843792539,1.1245081105,-0.0732304658,9.6212461226
1520616235849853234,0.0594054169,-0.0634317338,0.0916363994,1.0571643186,-0.0744243613,9.5800655928
1520616235854868234,0.0629228870,-0.0675257643,0.0975507518,1.0583668863,-0.0768227358,9.5591376352
1520616235859884234,0.0634194511,-0.0742376095,0.1012863300,1.0571643186,-0.0612338166,9.5405398356
1520616235864900234,0.0681938583,-0.0768691261,0.1053156429,0.9994410684,-0.0864112698,9.5353155146
1520616235869915234,0.0722155569,-0.0786267844,0.1093530253,0.9874153913,-0.0768172098,9.6005032719
1520616235874932234,0.0737240477,-0.0803846989,0.1131245289,0.9501357922,-0.0840091489,9.5694952580
1520616235879948234,0.0762438497,-0.0774793387,0.1166591892,0.9573511984,-0.0780140088,9.6054456435
1520616235884963234,0.0752450760,-0.0734032628,0.1177743629,0.9765922819,-0.1235828434,9.6053027975
1520616235889978234,0.0742430876,-0.0728289003,0.1207566808,0.9814025527,-0.1235832180,9.6389581519
1520616235894994234,0.0737535527,-0.0646768864,0.1232547737,0.9561486307,-0.1355726554,9.6938364174
1520616235900010234,0.0755162082,-0.0620537364,0.1232715144,0.9513383599,-0.1079920510,9.7136127900
1520616235905025234,0.0735121921,-0.0591486915,0.1262734839,1.0042513393,-0.0864116445,9.6712395371
1520616235910041234,0.0702508900,-0.0568269080,0.1292733408,0.9886179590,-0.0888087077,9.7411226787
1520616235915057234,0.0667357408,-0.0550821645,0.1301048512,0.9513383599,-0.0660221362,9.7437876059
1520616235920072234,0.0647244249,-0.0562506755,0.1309113303,0.9501357922,-0.1019962553,9.7124565044
1520616235925088234,0.0632214737,-0.0518768562,0.1295947474,0.9958333653,-0.0864109888,9.6701593285
1520616235930104234,0.0577000738,-0.0454634636,0.1277601020,0.9801999850,-0.1175874223,9.6645311773
1520616235935120234,0.0579613148,-0.0384715934,0.1283540811,0.9116536254,-0.1367683304,9.6280284684
1520616235940136234,0.0552081186,-0.0288504311,0.1259976638,0.8178533437,-0.0660117400,9.5858731455
1520616235945152234,0.0521998442,-0.0203876211,0.1209273619,0.8190559115,-0.0528212890,9.5207685162
1520616235950168234,0.0461736552,-0.0125036626,0.1139643933,0.8238661823,-0.0456268211,9.5032825207
1520616235955182234,0.0449323488,0.0020803686,0.1083964173,0.8178533437,-0.0312366677,9.4742734150
1520616235960198234,0.0416830235,0.0169484407,0.1052693113,0.8130430729,0.0095344814,9.4533618865
1520616235965214234,0.0369236589,0.0291890908,0.1037482733,0.8034225312,0.0011412477,9.4953008947
1520616235970229234,0.0344236080,0.0396823198,0.1022096962,0.8118405052,0.0011405920,9.5579747329
1520616235975245234,0.0334215804,0.0420130022,0.1022293478,0.8551329428,-0.0324387116,9.5494510846
1520616235980261234,0.0283991636,0.0431700153,0.1046824877,0.8767791617,-0.0216481336,9.5364462861
1520616235985277234,0.0256327202,0.0414198967,0.1049448290,0.9152613285,-0.0384390967,9.5453852467
1520616235990293234,0.0183407809,0.0361626504,0.1084354451,0.9044382191,-0.0708150452,9.5710893313
1520616235995308234,0.0148121690,0.0280003200,0.1091913705,0.8539303751,-0.0576205668,9.5250823228
1520616236000324234,0.0105307191,0.0215903719,0.1083387593,0.8058276666,-0.0420279949,9.5162381720
1520616236005340234,0.0027340298,0.0160473716,0.1096637185,0.8070302343,-0.0504220715,9.4604517425
1520616236010356234,-0.0035581204,0.0087595686,0.1098903554,0.7793711769,-0.0504199173,9.4246944962
1520616236015372234,-0.0070777114,0.0078847651,0.1096196744,0.6879760307,-0.0444170971,9.3430660131
1520616236020386234,-0.0131118707,0.0073069174,0.1069209706,0.5953783168,-0.0791849575,9.3300554858
1520616236025403234,-0.0196530263,0.0038164844,0.1036598776,0.5508833115,-0.1235496878,9.3247211187
1520616236030418234,-0.0259451137,0.0035532326,0.0923063950,0.5232242541,-0.1247466740,9.2657221626
1520616236035434234,-0.0317347760,0.0044615433,0.0787965041,0.5220216864,-0.1211491591,9.2552710641
1520616236040451234,-0.0382700275,0.0085616766,0.0701822934,0.5857577751,-0.1703188804,9.2709686544
1520616236045465234,-0.0450555231,0.0129509107,0.0623824102,0.6049988586,-0.1511341322,9.2614655124
1520616236050481234,-0.0510820650,0.0202506433,0.0559560872,0.6266450774,-0.1643263627,9.2043226304
1520616236055497234,-0.0578644400,0.0258003165,0.0500589177,0.7144325204,-0.1799220254,9.1407275891
1520616236060513234,-0.0649002348,0.0263810572,0.0498058862,0.6843683276,-0.1331532074,9.1804875058
1520616236065529234,-0.0691731931,0.0263822972,0.0487316369,0.6062014263,-0.1379436812,9.1917123074
1520616236070543234,-0.0744500686,0.0281350927,0.0463198635,0.4691087070,-0.1882969018,9.1826365005
1520616236075559234,-0.0784757269,0.0269789058,0.0422602503,0.5917706137,-0.1355442764,9.1383918075
1520616236080576234,-0.0809837441,0.0304738071,0.0425621405,0.7829788801,0.0754895461,9.0363805197
1520616236085591234,-0.0839798966,0.0400671905,0.0504869340,0.6615195411,0.1258629036,9.0514593456
1520616236090606234,-0.0862261043,0.0496739811,0.0535405011,0.6374681868,0.1102759513,9.0180064735
1520616236095622234,-0.0867184109,0.0557863034,0.0560230324,0.5929731814,0.0850974678,9.0324098442
1520616236100639234,-0.0887256417,0.0551896349,0.0608921462,0.5809475043,0.0575181747,9.1080931466
1520616236105653234,-0.0867160861,0.0549004949,0.0603450975,0.5713269626,0.0371335367,9.1988538942
1520616236110669234,-0.0857221542,0.0464500090,0.0605493070,0.5412627698,-0.0060331770,9.2491608069
1520616236115685234,-0.0844765705,0.0385838475,0.0602164042,0.5268319572,-0.0240191594,9.2725616867
1520616236120700234,-0.0814739611,0.0298471353,0.0587913815,0.3945495088,-0.1139443886,9.3518005883
1520616236125717234,-0.0772220202,0.0190857923,0.0519375457,0.3067620657,-0.2554361214,9.3830087823
1520616236130733234,-0.0707032775,0.0153331327,0.0397219454,0.5701243949,-0.1127589225,9.2501461007
1520616236135747234,-0.0611384442,0.0234810721,0.0451773743,0.9441229536,0.2061833019,9.1009267896
1520616236140763234,-0.0487761337,0.0461548867,0.0672421230,0.9248818702,0.4520085872,8.8916884442
1520616236145780234,-0.0371760701,0.0659291292,0.0838751232,0.7745609061,0.5299644222,8.8930755692
1520616236150795234,-0.0278573529,0.0746451706,0.0947463829,0.6531015671,0.4880039671,9.0012159505
1520616236155811234,-0.0152765847,0.0819150389,0.1020833630,0.6314553482,0.4100615254,9.1549056506
1520616236160827234,-0.0077226714,0.0891858519,0.1083474941,0.5785423689,0.3033421488,9.3217113297
1520616236165843234,0.0028478865,0.0982105240,0.1129960876,0.5304396603,0.2086138017,9.3478390767
1520616236170857234,0.0078835465,0.1069613133,0.1103479867,0.4943626290,0.1246767819,9.3703528173
1520616236175873234,0.0146785218,0.1171755418,0.1055433670,0.5136037124,0.0431337345,9.4225415294
1520616236180890234,0.0177016389,0.1256399863,0.1007324097,0.5593012855,0.0215456478,9.4895221347
1520616236185906234,0.0217373805,0.1372998564,0.0997316819,0.5580987177,-0.0300172967,9.5325834477
1520616236190921234,0.0260242405,0.1472042335,0.1014226079,0.5965808846,-0.0240245917,9.5217437436
1520616236195937234,0.0290487101,0.1524445090,0.1036213899,0.6759503536,0.0059477373,9.4895640896
1520616236200953234,0.0330774459,0.1550539764,0.1090448481,0.7072171142,0.0311272510,9.4683166109
1520616236205968234,0.0386157741,0.1573653657,0.1171687417,0.7408890101,0.1246575816,9.4748705245
1520616236210985234,0.0434008213,0.1599671157,0.1255668045,0.7877891509,0.0970736991,9.4907109375
1520616236216000234,0.0481828851,0.1634568595,0.1288311645,0.7709532029,0.0455119722,9.5513565755
1520616236221015234,0.0567309970,0.1634470953,0.1336851221,0.7541172550,0.0179330537,9.6166274025
1520616236226032234,0.0662811837,0.1622772857,0.1366344991,0.7853840155,0.0143331972,9.6790823526
1520616236231047234,0.0730638332,0.1608244783,0.1360696904,0.7649403644,0.0467115809,9.7106276532
1520616236236062234,0.0806056090,0.1611108037,0.1390339166,0.7781686092,0.0874813250,9.6953512686
1520616236241078234,0.0919140563,0.1611152342,0.1390129141,0.7108248173,0.1186642210,9.7087599324
1520616236246093234,0.1002050280,0.1605393563,0.1376403365,0.7384838747,0.1378483136,9.7293905979
1520616236251108234,0.1077435538,0.1605437669,0.1370852430,0.7673454998,0.1030709935,9.8267636795
1520616236256125234,0.1175496143,0.1625785572,0.1403291532,0.7781686092,0.0910787463,9.8615343460
1520616236261144234,0.1276056996,0.1643249751,0.1424881899,0.7060145464,0.0958809276,9.9215013137
1520616236266157234,0.1366532455,0.1634478100,0.1448996317,0.6795580568,0.1330563412,9.9577490380
1520616236271171234,0.1469542510,0.1608250154,0.1464837637,0.7000017079,0.1942109106,9.9051939378
1520616236276189234,0.1570081330,0.1596517606,0.1507849367,0.6494938639,0.2577692868,9.9149207269
1520616236281204234,0.1668130920,0.1602267145,0.1550999150,0.6326579159,0.2697620022,9.9092621845
1520616236286219234,0.1801367206,0.1619722271,0.1580645220,0.6711400828,0.2505727583,9.9460949386
1520616236291236234,0.1919504432,0.1616752719,0.1618280055,0.6783554890,0.2373816517,9.9901990413
1520616236296251234,0.2047656211,0.1584641369,0.1658379371,0.6290502128,0.2481777556,9.9221019313
1520616236301266234,0.2158299360,0.1619570705,0.1688200832,0.6326579159,0.2613680193,9.9499454083
1520616236306282234,0.2266420701,0.1639893409,0.1731443100,0.6206322388,0.2421827091,9.9640268957
1520616236311298234,0.2377044013,0.1645618734,0.1785391383,0.5905680460,0.2949472292,9.9793759426
1520616236316313234,0.2470058844,0.1651395441,0.1817728664,0.5713269626,0.2721650597,9.9760990091
1520616236321329234,0.2542939347,0.1610433483,0.1890329475,0.6410758899,0.2709604870,10.0184206115
1520616236326345234,0.2663572781,0.1572396793,0.1965569297,0.6518989994,0.2457776952,10.0625012923
1520616236331360234,0.2739006260,0.1543011073,0.2068014412,0.6410758899,0.2493759594,10.1590610780
1520616236336377234,0.2789270690,0.1481548641,0.2175672578,0.6170245357,0.2457804113,10.2127573091
1520616236341393234,0.2834466961,0.1408516270,0.2250785647,0.5917706137,0.2769600292,10.2304048717
1520616236346408234,0.2899760041,0.1309172473,0.2360832267,0.6001885877,0.3165310076,10.2465543635
1520616236351423234,0.2932371925,0.1189367969,0.2489722158,0.5713269626,0.3045418512,10.2654412815
1520616236356440234,0.2980038020,0.1066721086,0.2594212685,0.5701243949,0.3021436640,10.2701039011
1520616236361456234,0.2997521871,0.0929515015,0.2690531686,0.5785423689,0.2985455871,10.2305125793
1520616236366471234,0.3037675816,0.0818484137,0.2808652432,0.5340473635,0.3189344397,10.2797358337
1520616236371486234,0.3042644829,0.0698668803,0.2937593663,0.5196165509,0.3429183721,10.2949607789
1520616236376502234,0.3052679884,0.0619700262,0.3047898578,0.5532884469,0.4016736304,10.3038728914
1520616236381519234,0.3090317784,0.0514532513,0.3152541159,0.4679061393,0.3932862973,10.3465493181
1520616236386535234,0.3110410085,0.0444331299,0.3254777721,0.4234111339,0.4424545200,10.3527451821
1520616236391550234,0.3135510408,0.0391753528,0.3305734613,0.4210059985,0.4772297796,10.3562211132
1520616236396565234,0.3120352776,0.0307129558,0.3348405265,0.4149931599,0.4688362650,10.4388000446
1520616236401580234,0.3137925111,0.0254512412,0.3412903454,0.4017649151,0.4556467506,10.4215095036
1520616236406596234,0.3142975198,0.0239799469,0.3466892145,0.3272057169,0.4820336468,10.4721816817
1520616236411613234,0.3120262371,0.0161080364,0.3479861212,0.2875209823,0.5264049332,10.5097132896
1520616236416627234,0.3125271568,0.0126014209,0.3517461532,0.2754953052,0.5551852400,10.5167751397
1520616236421643234,0.3147835654,0.0082293538,0.3525202441,0.2827107115,0.5659769419,10.5713151512
1520616236426659234,0.3115128073,0.0047285458,0.3535818181,0.2105566487,0.6079524763,10.6277594375
1520616236431675234,0.3087379664,-0.0010914866,0.3502959396,0.2093540810,0.6199439742,10.6637859117
