#timestamp [ns],w_RS_S_x [rad s^-1],w_RS_S_y [rad s^-1],w_RS_S_z [rad s^-1],a_RS_S_x [m s^-2],a_RS_S_y [m s^-2],a_RS_S_z [m s^-2]
1520439642045615587,0.0336869075,-0.0350572981,-0.0609610098,0.4077777536,0.7314485797,9.5553847844
1520439642050631587,0.0306783508,-0.0336183108,-0.0547217381,0.3837263994,0.7470392784,9.5474686765
1520439642055647587,0.0289246574,-0.0345150065,-0.0466087634,0.3813212639,0.7494377465,9.5405168842
1520439642060662587,0.0286784511,-0.0348247003,-0.0398468723,0.4390445142,0.7590263742,9.5387835428
1520439642065677587,0.0294333552,-0.0357058428,-0.0371494828,0.4258162693,0.7326463152,9.5331273041
1520439642070694587,0.0314469056,-0.0363009360,-0.0322878366,0.4618933007,0.7482323309,9.4804644731
1520439642075710587,0.0352204731,-0.0357276166,-0.0282322029,0.4378419465,0.7350436594,9.5330079149
1520439642080724587,0.0407535754,-0.0336915863,-0.0260625420,0.4534753267,0.7182544759,9.5107913848
1520439642085742587,0.0447821857,-0.0287401162,-0.0246794877,0.4811343841,0.7302437260,9.5395640739
1520439642090756587,0.0488166414,-0.0217591524,-0.0194932292,0.4943626290,0.7458315212,9.5475551246
1520439642095772587,0.0533504878,-0.0153527481,-0.0172883551,0.4931600612,0.7542255978,9.5092078938
1520439642100788587,0.0581366485,-0.0069007261,-0.0172327534,0.5160088478,0.6990633588,9.5229850148
1520439642105804587,0.0611623060,-0.0007862971,-0.0150273021,0.4799318164,0.7074601516,9.5372737085
1520439642110820587,0.0626796883,0.0056218396,-0.0138990110,0.4703112747,0.7146557434,9.5431710527
1520439642115835587,0.0652049945,0.0143629031,-0.0132958939,0.4859446550,0.7206502279,9.5464994721
1520439642120852587,0.0667258973,0.0236863418,-0.0126864637,0.4823369518,0.6954685600,9.5488834313
1520439642125867587,0.0687468064,0.0327258773,-0.0147856490,0.4727164101,0.6750839221,9.5675912538
1520439642130883587,0.0737759547,0.0365224011,-0.0172009964,0.4594881653,0.7218514289,9.5676744052
1520439642135899587,0.0732808411,0.0438148301,-0.0201204907,0.4318291079,0.6870785108,9.5610046686
1520439642140915587,0.0780604939,0.0487760652,-0.0222559332,0.4246137016,0.6702911068,9.5761991411
1520439642145931587,0.0830844514,0.0490774316,-0.0252390494,0.4510701913,0.6870770122,9.5828981229
1520439642150946587,0.0856016228,0.0534550115,-0.0273747375,0.4173982953,0.7002701794,9.6169151764
1520439642155962587,0.0888672374,0.0546312991,-0.0308890092,0.4149931599,0.7086643496,9.6622540153
1520439642160978587,0.0921350082,0.0575566223,-0.0346604883,0.4546778944,0.6870767312,9.6839695317
1520439642165993587,0.0918852070,0.0593077448,-0.0357288667,0.4510701913,0.6798821697,9.7223624134
1520439642171009587,0.0893755628,0.0619299494,-0.0359747376,0.4161957276,0.6882788688,9.7680172889
1520439642176025587,0.0856100439,0.0663057963,-0.0383693035,0.4005623473,0.7410422650,9.7925230267
1520439642181040587,0.0785685292,0.0625150407,-0.0383851354,0.3897392379,0.7410431079,9.8100605315
1520439642186056587,0.0702637969,0.0566972129,-0.0432840213,0.3753084254,0.7086674404,9.8369618753
1520439642191072587,0.0602083271,0.0552414511,-0.0451702891,0.3704981545,0.7230575001,9.7881846174
1520439642196087587,0.0536702921,0.0529114572,-0.0465286685,0.3981572119,0.7062673800,9.8239582344
1520439642201104587,0.0488925369,0.0514563060,-0.0478836456,0.3813212639,0.7242557976,9.7973752542
1520439642206120587,0.0451242462,0.0537924613,-0.0502937732,0.3596750451,0.7182617814,9.7929432161
1520439642211136587,0.0428600085,0.0532146336,-0.0524583860,0.3043569303,0.7146686685,9.7714044216
1520439642216150587,0.0433610263,0.0535127709,-0.0548920094,0.2779004406,0.7590389247,9.7507000761
1520439642221167587,0.0436074481,0.0523582577,-0.0589595569,0.2634696281,0.7698323124,9.7496678688
1520439642226182587,0.0478700330,0.0482936598,-0.0638684405,0.2201771904,0.7674374033,9.7582265971
1520439642231198587,0.0523870844,0.0465602366,-0.0687600062,0.2358105707,0.8010121176,9.7592038339
1520439642236214587,0.0548909734,0.0427863341,-0.0736633996,0.2358105707,0.8082069601,9.7475753783
1520439642241230587,0.0584015985,0.0404712049,-0.0790986364,0.2406208415,0.7878211983,9.7591698764
1520439642246245587,0.0634204517,0.0366917310,-0.0815717840,0.2454311124,0.8058079300,9.7730512435
1520439642251262587,0.0656758097,0.0334939432,-0.0840353515,0.2514439509,0.8165997255,9.8008736491
1520439642256279587,0.0656677140,0.0273741397,-0.0838114904,0.2586593572,0.9197252400,9.7495685216
1520439642261294587,0.0669183079,0.0212475442,-0.0808845040,0.2610644926,1.0264485503,9.7389817447
1520439642266309587,0.0669106435,0.0121993268,-0.0752719558,0.2358105707,1.0288487980,9.7973324099
1520439642271325587,0.0681615393,0.0040228415,-0.0685728884,0.1985309716,1.0444405270,9.8081393608
1520439642276341587,0.0689065442,-0.0041429142,-0.0659310760,0.1792898882,1.0600308511,9.8152843040
1520439642281356587,0.0694004699,-0.0123094968,-0.0630182510,0.1780873205,1.0480395405,9.7792812399
1520439642286372587,0.0734196987,-0.0181567366,-0.0552243493,0.1732770496,1.0804167066,9.8060257989
1520439642291388587,0.0759325458,-0.0216676634,-0.0495742297,0.1889104299,1.1091948591,9.7942241295
1520439642296403587,0.0819632237,-0.0257614378,-0.0433939987,0.2045438101,1.0996005182,9.7882705987
1520439642301421587,0.0874885322,-0.0318951007,-0.0372283958,0.1275794765,1.0564374572,9.7797646669
1520439642306435587,0.0927619303,-0.0368560397,-0.0337588928,0.1323897474,1.0708267676,9.7855145344
1520439642311451587,0.0960266039,-0.0427013896,-0.0267752286,0.1636565079,1.0768200346,9.8282036825
1520439642316466587,0.0975330247,-0.0467940224,-0.0216687801,0.1516308308,1.0684269882,9.8724903887
1520439642321484587,0.1015527435,-0.0500086034,-0.0176425132,0.1552385339,1.0888120944,9.8433817959
1520439642326499587,0.1043166778,-0.0505917463,-0.0171110015,0.1889104299,1.0840129103,9.8186537087
1520439642331515587,0.1048270575,-0.0468122917,-0.0138364841,0.1985309716,1.0576310717,9.8639094079
1520439642336529587,0.1028284516,-0.0404128178,-0.0099961999,0.1768847527,1.0504379150,9.8327492282
1520439642341545587,0.0998226353,-0.0322508619,-0.0115516282,0.1612513725,1.0348503071,9.8654566260
1520439642346561587,0.0978225397,-0.0246756518,-0.0114900942,0.1516308308,1.0276562138,9.8632329946
1520439642351576587,0.0933129293,-0.0153567613,-0.0100578250,0.1143512317,1.0060745896,9.8798869148
1520439642356594587,0.0860341979,-0.0074864068,-0.0121486338,0.0542228460,0.9820964642,9.9548727675
1520439642361610587,0.0757397943,0.0009684490,-0.0153115795,0.0277663563,0.9485225928,9.9400551489
1520439642366624587,0.0629242205,0.0038881995,-0.0193237342,-0.0540082481,0.8789788172,9.9862425286
1520439642371640587,0.0493564242,0.0088509885,-0.0246716566,-0.1045160921,0.8693896275,9.9727977682
1520439642376656587,0.0362887165,0.0114807128,-0.0292266594,-0.0744518993,0.8705864264,9.9887739878
1520439642381673587,0.0204496886,0.0112057070,-0.0375864017,-0.0732493316,0.8394086817,9.9957655493
1520439642386688587,0.0071282632,0.0123798671,-0.0426931451,-0.0708441961,0.8358110732,9.9852863516
1520439642391704587,-0.0041804899,0.0129618478,-0.0440204258,-0.0768570347,0.8322141202,10.0027805442
1520439642396719587,-0.0162403247,0.0152903835,-0.0447918761,-0.0564133836,0.8358099492,9.9665515877
1520439642401735587,-0.0250310753,0.0190763933,-0.0452877325,-0.0900852795,0.8394099930,9.9447950861
1520439642406751587,-0.0335703545,0.0216911359,-0.0436285808,-0.0936929827,0.8094317634,9.9274272755
1520439642411768587,-0.0375879250,0.0237277955,-0.0430644598,-0.0948955504,0.8070335762,9.9007120082
1520439642416782587,-0.0388409848,0.0272282881,-0.0446587245,-0.1057186598,0.7938438745,9.9043166483
1520439642421798587,-0.0400999841,0.0263580128,-0.0462863355,-0.1177443369,0.7470783346,10.0113965469
1520439642426814587,-0.0418751261,0.0176296280,-0.0514901331,-0.1706573163,0.7314936301,10.1234925904
1520439642431830587,-0.0419061757,-0.0010000425,-0.0586666038,-0.1610367746,0.7159040553,10.1408463107
1520439642436846587,-0.0394309684,-0.0245822655,-0.0658855343,-0.1177443369,0.7099049814,10.1474036391
1520439642441862587,-0.0316771214,-0.0469961543,-0.0733759194,-0.1069212275,0.6871204705,10.1717255341
1520439642446877587,-0.0211563058,-0.0682470642,-0.0795098167,-0.1177443369,0.7386843516,10.1287812717
1520439642451893587,-0.0086253190,-0.0894964580,-0.0859179937,-0.1562265037,0.7398864891,10.0722096104
1520439642456910587,0.0051665254,-0.1046131727,-0.0971516457,-0.1983163737,0.7147078183,10.0377795249
1520439642461925587,0.0174545756,-0.1185729527,-0.1053976001,-0.2259754311,0.7051168491,10.0194637926
1520439642466940587,0.0322607145,-0.1299143865,-0.1117343927,-0.2488242176,0.7338979988,9.9661995026
1520439642471956587,0.0475716073,-0.1395065878,-0.1183293261,-0.2043292123,0.7506824994,9.9727229085
1520439642476973587,0.0593711341,-0.1447323132,-0.1238021956,-0.2139497540,0.7878566018,9.9483752764
1520439642481988587,0.0706738263,-0.1458795807,-0.1289724625,-0.1778727226,0.8226288642,9.9607737974
1520439642487005587,0.0777039522,-0.1481977021,-0.1327909580,-0.1478085298,0.8729904205,10.0208635444
1520439642492020587,0.0824801707,-0.1467374519,-0.1333298021,-0.1165417692,0.9113604789,10.0205217940
1520439642497035587,0.0834904194,-0.1452903335,-0.1295329110,-0.0419825710,0.9857013782,10.0069399980
1520439642502051587,0.0817320725,-0.1458788908,-0.1276402688,-0.0095132428,1.0372618876,10.0042493920
1520439642507068587,0.0772172636,-0.1429821147,-0.1219281732,0.0229560855,1.1020129417,9.9922487716
1520439642512082587,0.0686849704,-0.1386343620,-0.1145742191,0.0951101483,1.1751548879,9.9635836836
1520439642517098587,0.0631676007,-0.1357467209,-0.1056137058,0.1624539402,1.1931367493,9.9326949176
1520439642522115587,0.0523824978,-0.1276242387,-0.0936273709,0.2526465187,1.2542858864,9.9073523790
1520439642527130587,0.0400915739,-0.1209723816,-0.0767795249,0.3548647743,1.2938495593,9.9121295808
1520439642532146587,0.0295605338,-0.1137370663,-0.0599304999,0.4222085662,1.3466064929,9.9393141016
1520439642537162587,0.0157688540,-0.1027186742,-0.0416937778,0.4173982953,1.3933733441,9.9555853329
1520439642542178587,0.0009686309,-0.0957873436,-0.0207808531,0.3741058577,1.3034411841,9.9572565594
1520439642547193587,-0.0130795343,-0.0868007289,-0.0055352308,0.2742927375,1.2806652898,9.9338452734
1520439642552209587,-0.0278774130,-0.0734378143,0.0075807708,0.2418234092,1.2734729761,9.9295197502
1520439642557226587,-0.0444448549,-0.0679436994,0.0209105621,0.2285951644,1.2255083894,9.9227224157
1520439642562242587,-0.0610110148,-0.0592341568,0.0304771647,0.1287820442,1.1823471080,9.9830053732
1520439642567255587,-0.0750686243,-0.0516796980,0.0365131112,0.0999204191,1.1175957729,9.9380258247
1520439642572272587,-0.0906354342,-0.0449992552,0.0422746428,0.0097278406,1.0456543720,9.8936502501
1520439642577289587,-0.1031932013,-0.0385886194,0.0404530655,-0.0852750087,0.9569253798,9.9190665037
1520439642582305587,-0.1144887033,-0.0251718793,0.0340832285,-0.1369854203,0.8490067691,9.8708650155
1520439642587319587,-0.1230181541,-0.0088329266,0.0250250294,-0.1466059620,0.7806565143,9.8233774062
1520439642592336587,-0.1282860871,0.0037200356,0.0156613169,-0.1478085298,0.7350892718,9.8292442659
1520439642597350587,-0.1345600034,0.0171533135,0.0038712275,-0.1574290715,0.7230986169,9.8479439030
1520439642602368587,-0.1400875857,0.0268069005,-0.0109251670,-0.1874932643,0.7135078350,9.9040287940
1520439642607383587,-0.1446041744,0.0373197380,-0.0200352954,-0.2127471863,0.7255012061,9.9449379451
1520439642612399587,-0.1508846104,0.0428717934,-0.0267450361,-0.1826829934,0.7794601836,9.9887541687
1520439642617413587,-0.1551523271,0.0490023065,-0.0315602431,-0.2307857020,0.7770656492,9.9822518459
1520439642622431587,-0.1569139632,0.0498881542,-0.0361495871,-0.1309725818,0.8370148966,9.9870325791
1520439642627446587,-0.1566634093,0.0504761207,-0.0380394289,-0.0756544670,0.8765822222,9.9144026331
1520439642632461587,-0.1516325086,0.0528033386,-0.0358666115,-0.0383748679,0.9101552506,9.8710077086
1520439642637477587,-0.1453464351,0.0536719408,-0.0328956055,0.0494125752,0.9377286432,9.7690198206
1520439642642493587,-0.1373006150,0.0530755684,-0.0266924312,0.1191615025,0.9533120364,9.6974349447
1520439642647508587,-0.1282404964,0.0577179555,-0.0180161952,0.1720744819,0.9664984600,9.6422862937
1520439642652525587,-0.1149104971,0.0609058221,-0.0096295548,0.2682798989,1.0276471288,9.6250202375
1520439642657540587,-0.1018309616,0.0643835179,-0.0006991328,0.3332185554,1.0552223009,9.5825240873
1520439642662556587,-0.0925155493,0.0687200502,0.0133853313,0.3584724774,1.0624151766,9.5880819848
1520439642667571587,-0.0816992910,0.0695678433,0.0247348591,0.4342342433,1.0863920845,9.5849968916
1520439642672588587,-0.0741442877,0.0739080570,0.0371993149,0.4438547850,1.1091750032,9.5476924272
1520439642677604587,-0.0673450314,0.0759125286,0.0512706615,0.4763241133,1.1511423892,9.6124155252
1520439642682619587,-0.0623086070,0.0750017373,0.0655935903,0.4943626290,1.1655306694,9.6529009557
1520439642687636587,-0.0605446069,0.0714737612,0.0774676656,0.4979703321,1.1559372650,9.6993609534
1520439642692651587,-0.0592839964,0.0673628191,0.0893382282,0.4546778944,1.1391526709,9.7160687215
1520439642697666587,-0.0590311334,0.0612110631,0.1014656420,0.4198034308,1.1415536679,9.7326758448
1520439642702682587,-0.0582754884,0.0582785740,0.1084762043,0.3921443734,1.0792005200,9.7225465712
1520439642707698587,-0.0582731244,0.0556364456,0.1157609357,0.3632827482,1.0480251169,9.6670749856
1520439642712715587,-0.0587723467,0.0535761609,0.1233215926,0.3440416648,1.0132515431,9.6672961773
1520439642717729587,-0.0600252850,0.0532711724,0.1281915293,0.3103697689,0.9952670593,9.6711278908
1520439642722746587,-0.0590189057,0.0526822412,0.1306201293,0.2682798989,0.9760840906,9.6180976554
1520439642727761587,-0.0575092231,0.0532619589,0.1319745046,0.2730901698,0.9652914521,9.6192235031
1520439642732777587,-0.0577572249,0.0547144125,0.1336093621,0.2899261178,0.9520995962,9.5679381611
1520439642737793587,-0.0582542870,0.0558666419,0.1384890140,0.2851158469,0.9221214603,9.5773113664
1520439642742809587,-0.0585012341,0.0576082947,0.1409377323,0.2923312532,0.9760822174,9.5760263719
1520439642747824587,-0.0567395510,0.0578930841,0.1436421473,0.2803055761,0.9473037838,9.5924415019
1520439642752842587,-0.0582385465,0.0637172702,0.1447715930,0.2899261178,0.9161253835,9.6039997039
1520439642757856587,-0.0557099472,0.0724474073,0.1494328985,0.2983440917,0.9089298854,9.6283298075
1520439642762872587,-0.0554447113,0.0791333244,0.1554355725,0.2634696281,0.9209240057,9.6611975915
1520439642767886587,-0.0587025399,0.0831997729,0.1598014974,0.2021386747,0.9149330803,9.7315290333
1520439642772903587,-0.0596963935,0.0881376190,0.1655226205,0.1636565079,0.9101395157,9.7249354088
1520439642777919587,-0.0632148868,0.0872591733,0.1666046690,0.1083383931,0.8897584369,9.7557094629
1520439642782935587,-0.0687435042,0.0875498487,0.1660760682,0.1155537994,0.8489871005,9.7556789901
1520439642787951587,-0.0730147532,0.0863746241,0.1690511150,0.0999204191,0.8405943351,9.7302721742
1520439642792967587,-0.0755270828,0.0863714543,0.1698674199,0.0806793357,0.8310027103,9.7339552417
1520439642797981587,-0.0755214061,0.0910357920,0.1690913516,0.1347948828,0.8058165467,9.7020751835
1520439642802998587,-0.0770236948,0.0968709045,0.1661626088,0.1456179922,0.7638457890,9.6648221584
1520439642808014587,-0.0775213135,0.1032935506,0.1616131699,0.1516308308,0.7422607930,9.6682711131
1520439642813030587,-0.0765044510,0.1149631657,0.1565598544,0.1480231276,0.6894988954,9.6393040803
1520439642818045587,-0.0719759128,0.1231433723,0.1493089606,0.1696693465,0.6199470649,9.6182426198
1520439642823062587,-0.0669447729,0.1327872543,0.1396333357,0.1841001590,0.5791751666,9.5763047343
1520439642828076587,-0.0624131533,0.1438842199,0.1313224891,0.2057463779,0.5767751999,9.5377456315
1520439642833093587,-0.0571259160,0.1581954518,0.1197881456,0.1973284039,0.5899664002,9.5424632799
1520439642838109587,-0.0503340535,0.1701761983,0.1082332170,0.1949232684,0.5563906556,9.5564651590
1520439642843124587,-0.0432908530,0.1804007233,0.0996404881,0.1961258361,0.5839707917,9.5692101426
1520439642848139587,-0.0367513948,0.1894580564,0.0915808921,0.1684667787,0.6187480182,9.6217419260
1520439642853156587,-0.0327303822,0.1938493388,0.0845725775,0.1612513725,0.6403331078,9.6531689950
1520439642858171587,-0.0282106924,0.1935706530,0.0805037649,0.1504282631,0.7002909719,9.7182959350
1520439642863187587,-0.0219278610,0.1970842973,0.0751078560,0.1359974505,0.7122835000,9.6800739518
1520439642868203587,-0.0146388267,0.1997168976,0.0724088698,0.1804924559,0.7458559665,9.6679866837
1520439642873219587,-0.0075997740,0.2023450288,0.0713336257,0.1901129976,0.7758337278,9.6306752032
1520439642878234587,-0.0018184896,0.2046841969,0.0691763086,0.1937207007,0.7722360255,9.6074007170
1520439642883250587,0.0069732764,0.2029437063,0.0675233594,0.1347948828,0.8154096701,9.6474450630
1520439642888266587,0.0187788250,0.2000395875,0.0655853713,0.1143512317,0.7866318922,9.6232670900
1520439642893282587,0.0227943764,0.1983023252,0.0620474686,0.0710587940,0.7950292469,9.6783010525
1520439642898297587,0.0298289011,0.1988965922,0.0587922957,0.1023255545,0.7794379862,9.6629040511
1520439642903314587,0.0386210238,0.1992038060,0.0541789033,0.0722613617,0.7710463448,9.6492591354
1520439642908330587,0.0446466209,0.1998100625,0.0463263171,0.0698562263,0.7878344980,9.6446175990
1520439642913345587,0.0506721279,0.1995385232,0.0398197912,0.1179589348,0.7998221558,9.6313541198
1520439642918360587,0.0556918710,0.2001465712,0.0311574342,0.1323897474,0.7758382235,9.6509934931
1520439642923378587,0.0582003783,0.1992843286,0.0270879093,0.1311871796,0.7734400363,9.6719261281
1520439642928393587,0.0622124563,0.1958024013,0.0221839385,0.1408077214,0.8429894315,9.7170882801
1520439642933408587,0.0657125668,0.1859120028,0.0164203557,0.1215666379,0.8753677215,9.6870282461
1520439642938425587,0.0661932219,0.1739843733,0.0092940825,0.0927050128,0.8298026333,9.6803807386
1520439642943441587,0.0679310690,0.1602987309,0.0059397796,0.1179589348,0.8537834749,9.6313014996
1520439642948455587,0.0699053487,0.1372961664,-0.0001915876,0.0650459554,0.8250082258,9.6213852906
1520439642953471587,0.0698709079,0.1148726695,-0.0052325913,0.0518177106,0.7638530944,9.6099522430
1520439642958488587,0.0726084539,0.0982786747,-0.0105048131,0.0890973097,0.7446639442,9.5945002242
1520439642963503587,0.0760902639,0.0755702707,-0.0174483953,0.1167563671,0.7698437389,9.6418543539
1520439642968518587,0.0795732579,0.0522725418,-0.0219615106,0.1564411016,0.7638449460,9.6170689107
1520439642973535587,0.0830589413,0.0330636659,-0.0299605993,0.1564411016,0.7170784695,9.5973580677
1520439642978551587,0.0918270006,0.0164742193,-0.0360556602,0.1588462370,0.7122817205,9.5589885845
1520439642983566587,0.1031155244,0.0042514261,-0.0402282208,0.1468205599,0.6631178997,9.5254514033
1520439642988582587,0.1128994699,-0.0044702445,-0.0462651253,0.1708719142,0.6583194648,9.5949506168
1520439642993598587,0.1284626730,-0.0134803067,-0.0525855334,0.2105566487,0.7098794123,9.5631361816
1520439642998613587,0.1452937160,-0.0160881582,-0.0556128164,0.2418234092,0.7026821346,9.4756780696
1520439643003629587,0.1591150653,-0.0154970603,-0.0567162236,0.2249874613,0.7110774288,9.5269680890
1520439643008645587,0.1716806183,-0.0166649600,-0.0540429932,0.2538490864,0.7266640064,9.5580498530
1520439643013661587,0.1809841714,-0.0137525709,-0.0521442098,0.2237848935,0.7410560330,9.6117870692
1520439643018676587,0.1935539507,-0.0108367165,-0.0510631315,0.2370131384,0.6739031390,9.7163167525
1520439643023693587,0.1975792169,-0.0085084356,-0.0494295391,0.2947363886,0.6715003625,9.7866480296
1520439643028709587,0.1973395185,-0.0053273425,-0.0404766038,0.3729032900,0.7314512958,9.8090716131
1520439643033724587,0.1973463714,-0.0041792867,-0.0339746100,0.4402470819,0.6858787147,9.8898106416
1520439643038740587,0.1885571418,-0.0062522900,-0.0228814545,0.4859446550,0.6786803131,9.9707229423
1520439643043756587,0.1749927053,-0.0092035029,-0.0109744629,0.5027806029,0.7218480571,9.9542469599
1520439643048771587,0.1586683372,-0.0089505689,0.0009621166,0.5605038532,0.7422289486,10.0129345801
1520439643053788587,0.1413354336,-0.0098577395,0.0107273035,0.5617064209,0.7002589402,10.0675845678
1520439643058803587,0.1169633480,-0.0125145171,0.0199511284,0.5580987177,0.7014583616,10.0350784829
1520439643063819587,0.0953563884,-0.0134168055,0.0272893365,0.5244268218,0.7170498096,10.1364975471
1520439643068834587,0.0704812778,-0.0116818875,0.0287016101,0.5099960092,0.6726827378,10.1064655305
1520439643073850587,0.0468612539,-0.0108199025,0.0298343349,0.4679061393,0.6331143819,10.0546173178
1520439643078867587,0.0179636528,-0.0079100953,0.0272047800,0.4763241133,0.6163257604,10.0301467301
1520439643083883587,-0.0096762232,-0.0044184836,0.0251184294,0.4534753267,0.5923447315,10.0396896646
1520439643088898587,-0.0343058332,-0.0035423238,0.0208421032,0.4919574935,0.5935408748,9.9974767511
1520439643093914587,-0.0576776240,0.0002569148,0.0133391235,0.4582855976,0.5671624079,9.9478580281
1520439643098928587,-0.0775246802,0.0072554772,0.0085595225,0.4402470819,0.5491767065,9.9015653858
1520439643103946587,-0.0968717771,0.0127994992,0.0029562350,0.4258162693,0.5479786900,9.8296540907
1520439643108961587,-0.1127001651,0.0177577599,-0.0010347574,0.4366393787,0.5491769875,9.8586011747
1520439643113977587,-0.1260209280,0.0203932133,-0.0077536607,0.4498676236,0.5491759572,9.8201216686
1520439643118992587,-0.1353179222,0.0236057267,-0.0117701264,0.5136037124,0.5179933422,9.7916402485
1520439643124009587,-0.1403442437,0.0259464887,-0.0160717416,0.5208191186,0.4808194271,9.7474447974
1520439643129024587,-0.1423551989,0.0282891606,-0.0206495034,0.6037962908,0.4520335944,9.7025037424
1520439643134041587,-0.1418510134,0.0309183741,-0.0230653421,0.6218348065,0.4484347683,9.7104666823
1520439643139056587,-0.1363201497,0.0332545301,-0.0241400089,0.6458861608,0.4472337546,9.6928015912
1520439643144071587,-0.1295369709,0.0326780615,-0.0255097861,0.6422784577,0.5023944951,9.6939450607
1520439643149086587,-0.1199870470,0.0318018218,-0.0233698237,0.6915837339,0.5239751827,9.7259841360
1520439643154103587,-0.1089326702,0.0297664621,-0.0234059211,0.7132299527,0.5323674797,9.7129816761
1520439643159118587,-0.0958643431,0.0288908724,-0.0210019469,0.7084196819,0.5071859055,9.6805130217
1520439643164135587,-0.0830510039,0.0277347261,-0.0226579175,0.7000017079,0.5203771058,9.7142842691
1520439643169150587,-0.0654561694,0.0309483046,-0.0232072260,0.6903811662,0.5083864508,9.6551202613
1520439643174167587,-0.0536416078,0.0324047557,-0.0213242253,0.7240530621,0.4676130539,9.7094530431
1520439643179183587,-0.0380672865,0.0268701833,-0.0197721254,0.6915837339,0.4796069870,9.6760552115
1520439643184197587,-0.0239978491,0.0254231448,-0.0214326527,0.6687349473,0.4760113453,9.6379303651
1520439643189214587,-0.0099316225,0.0219378714,-0.0236498334,0.6110116971,0.4448381899,9.7140619677
1520439643194230587,0.0023723445,0.0161208326,-0.0258815317,0.6206322388,0.4004692450,9.7302816081
1520439643199244587,0.0109027010,0.0100233158,-0.0327077325,0.5857577751,0.3872814165,9.7852546833
1520439643204261587,0.0171641152,0.0010219941,-0.0436101520,0.4739189778,0.3489176333,9.8491364460
1520439643209277587,0.0231706669,-0.0106018868,-0.0545321126,0.4498676236,0.3177418555,9.8947245641
1520439643214292587,0.0254065013,-0.0242720353,-0.0635688127,0.4919574935,0.3021497519,9.9094379600
1520439643219309587,0.0236236244,-0.0356090407,-0.0739329900,0.4751215456,0.2565837270,9.8991869701
1520439643224324587,0.0236058218,-0.0428674303,-0.0837282194,0.4354368110,0.2014263583,9.9867878231
1520439643229340587,0.0208206977,-0.0518730249,-0.0943432910,0.4282214047,0.2026260607,9.9694247248
1520439643234356587,0.0125012835,-0.0637888033,-0.1071346928,0.3981572119,0.1822430150,9.9523050707
1520439643239371587,0.0059389773,-0.0786242936,-0.1175166794,0.4173982953,0.1942329207,9.9881325589
1520439643244387587,-0.0023768342,-0.0896739312,-0.1273254070,0.3789161285,0.2110238837,9.9501399995
1520439643249402587,-0.0101897421,-0.1013097830,-0.1357867847,0.3500545034,0.2446020634,9.9596853310
1520439643254417587,-0.0162386774,-0.1103268555,-0.1426081464,0.3476493680,0.2302125657,9.9353177501
1520439643259435587,-0.0245409909,-0.1146892176,-0.1469548252,0.3717007222,0.2481977988,9.8850939189
1520439643264449587,-0.0310852671,-0.1193400897,-0.1521186318,0.3392313940,0.3033607871,9.8690861505
1520439643269466587,-0.0368713305,-0.1190291167,-0.1602220509,0.2959389563,0.2937710355,9.7986261060
1520439643274482587,-0.0411538271,-0.1228013069,-0.1667361182,0.2863184146,0.3525296655,9.8009867367
1520439643279498587,-0.0481951144,-0.1236658339,-0.1713289995,0.2995466595,0.3405372310,9.7729782196
1520439643284514587,-0.0517189198,-0.1242339559,-0.1772789212,0.3356236908,0.3453309829,9.7633252389
1520439643289529587,-0.0542369145,-0.1245110279,-0.1829579409,0.4186008630,0.3513202225,9.7741331829
1520439643294545587,-0.0595191061,-0.1239113872,-0.1899778868,0.3957520765,0.3189452106,9.7592792797
1520439643299560587,-0.0635438430,-0.1253633293,-0.1924164477,0.4522727590,0.3153433873,9.7401383468
1520439643304577587,-0.0653040796,-0.1265310134,-0.1918809812,0.4751215456,0.3549132417,9.7189587714
1520439643309592587,-0.0675688897,-0.1276923386,-0.1937794943,0.4378419465,0.3968860600,9.6925513903
1520439643314607587,-0.0663151202,-0.1285609009,-0.1956823185,0.4426522173,0.3956865450,9.6820464438
1520439643319623587,-0.0643056156,-0.1314841566,-0.1919206406,0.4847420873,0.3752978797,9.6653866302
1520439643324640587,-0.0643057058,-0.1323619523,-0.1905745803,0.5111985769,0.3956812063,9.6383799293
1520439643329655587,-0.0612879715,-0.1335386923,-0.1859897931,0.4907549258,0.3621068667,9.5828287469
1520439643334671587,-0.0582721268,-0.1352945591,-0.1827621816,0.4655010038,0.3968839058,9.5969863697
1520439643339687587,-0.0560049017,-0.1341412467,-0.1778876636,0.4342342433,0.4088777452,9.5914682880
1520439643344702587,-0.0522340589,-0.1344369818,-0.1757325204,0.4318291079,0.3884925454,9.5822144253
1520439643349718587,-0.0489666527,-0.1364863201,-0.1716959609,0.4258162693,0.4304629285,9.5985020391
1520439643354735587,-0.0454489984,-0.1373612806,-0.1708975266,0.4210059985,0.4592426733,9.6275743940
1520439643359751587,-0.0419316930,-0.1373569885,-0.1719862443,0.4655010038,0.4568409270,9.6259815016
1520439643364765587,-0.0404218339,-0.1364851579,-0.1709001918,0.4799318164,0.4904157350,9.6676454818
1520439643369782587,-0.0361403919,-0.1330021669,-0.1651999853,0.4703112747,0.5191958544,9.6572517625
1520439643374798587,-0.0341243755,-0.1309711571,-0.1616710608,0.4642984361,0.5167980418,9.6700962100
1520439643379812587,-0.0353763455,-0.1304012637,-0.1570650008,0.4991728998,0.5767523469,9.6755090162
1520439643384829587,-0.0358737133,-0.1286626230,-0.1535336322,0.5087934415,0.5647601934,9.6638056296
1520439643389845587,-0.0381279776,-0.1269319559,-0.1472935376,0.5508833115,0.5779474599,9.6866259689
1520439643394861587,-0.0423888492,-0.1225803441,-0.1407591555,0.5460730406,0.5887400984,9.6843379772
1520439643399875587,-0.0469046657,-0.1188021302,-0.1377458495,0.5484781760,0.6223158429,9.6401203553
1520439643404892587,-0.0509120823,-0.1127013843,-0.1314691416,0.5809475043,0.6379021396,9.5851683515
1520439643409907587,-0.0539128099,-0.1063125022,-0.1238393479,0.5989860200,0.6271084709,9.5768682921
1520439643414923587,-0.0596791850,-0.0996274912,-0.1183665644,0.6049988586,0.6343028451,9.5547220156
1520439643419940587,-0.0631827337,-0.0947015561,-0.1085825856,0.6663298119,0.5899298728,9.5495197475
1520439643424955587,-0.0656813067,-0.0897744988,-0.0990710195,0.6783554890,0.5887297958,9.5505660102
1520439643429971587,-0.0689339487,-0.0836763713,-0.0917135282,0.6735452182,0.5755396258,9.5262206701
1520439643434988587,-0.0726892824,-0.0799197149,-0.0805852455,0.6819631922,0.5251750724,9.5424578623
1520439643440002587,-0.0734272699,-0.0747042261,-0.0697219939,0.6651272442,0.5347695070,9.5286666510
1520439643445019587,-0.0721631309,-0.0729729090,-0.0632178875,0.6374681868,0.5047931506,9.5150193733
1520439643450033587,-0.0693874629,-0.0697899059,-0.0545410989,0.6362656191,0.4400396614,9.5371749578
1520439643455050587,-0.0656121391,-0.0692224140,-0.0483210980,0.5833526397,0.4100652718,9.5563135170
1520439643460065587,-0.0633443848,-0.0671927626,-0.0442515484,0.5124011447,0.4196639211,9.5674540562
1520439643465081587,-0.0600694083,-0.0625351577,-0.0420576793,0.4715138424,0.4076757014,9.6097009039
1520439643470097587,-0.0527685500,-0.0552586158,-0.0379574487,0.4763241133,0.4028787650,9.5968751775
1520439643475113587,-0.0482338646,-0.0470988053,-0.0376330574,0.4630958684,0.3597107400,9.6005324612
1520439643480128587,-0.0457107617,-0.0412774145,-0.0348878040,0.4234111339,0.3465232862,9.6787952358
1520439643485144587,-0.0421808796,-0.0342900918,-0.0321355251,0.4186008630,0.3105494481,9.6463371054
1520439643490160587,-0.0371487832,-0.0281617633,-0.0348036338,0.3969546442,0.2697803596,9.6163718112
1520439643495177587,-0.0353832227,-0.0229139673,-0.0355785230,0.4198034308,0.2541897545,9.6684610945
1520439643500191587,-0.0333664536,-0.0185438686,-0.0350078187,0.3957520765,0.2517933469,9.7082104287
1520439643505207587,-0.0311019453,-0.0153326537,-0.0368813865,0.3873341025,0.2541922834,9.6885335782
1520439643510223587,-0.0308426331,-0.0071635904,-0.0406072494,0.3969546442,0.2613863766,9.6512443152
1520439643515238587,-0.0293258154,0.0015880057,-0.0440604538,0.4402470819,0.2577855836,9.6589614488
1520439643520255587,-0.0257975994,0.0094589516,-0.0448186023,0.4438547850,0.2853655323,9.6588994389
1520439643525270587,-0.0227735610,0.0176276410,-0.0480085074,0.4077777536,0.3237408357,9.6824560508
1520439643530286587,-0.0177352234,0.0260768477,-0.0468711888,0.3957520765,0.3717073892,9.6883370476
1520439643535303587,-0.0147043753,0.0356864343,-0.0440979687,0.4462599204,0.4268639150,9.7133588126
1520439643540318587,-0.0074016705,0.0438349445,-0.0391794312,0.6013911554,0.5299779093,9.7105861532
1520439643545334587,-0.0031106039,0.0505056830,-0.0269616692,0.6506964316,0.6570829541,9.7483330464
1520439643550349587,-0.0023373799,0.0533688334,-0.0080026258,0.6675323796,0.6762678896,9.8074198078
1520439643555366587,0.0002028552,0.0620603636,0.0109976123,0.5773398012,0.6522921057,9.8118075057
1520439643560381587,-0.0012834030,0.0693057792,0.0253949222,0.5196165509,0.5899412993,9.8054572903
1520439643565396587,-0.0022700940,0.0762687484,0.0365425249,0.4546778944,0.4880194210,9.8584852352
1520439643570412587,-0.0057705221,0.0823551225,0.0482292173,0.4173982953,0.4952171670,9.9367047208
1520439643575429587,-0.0112898285,0.0834929995,0.0577174839,0.3284082846,0.4592498851,9.9736324377
1520439643580445587,-0.0180636846,0.0893071053,0.0618327356,0.2983440917,0.3980960650,9.9902547158
1520439643585460587,-0.0213204547,0.0951262316,0.0645887237,0.2610644926,0.3693195983,10.0545635542
1520439643590476587,-0.0273387794,0.1047402865,0.0644027410,0.1877078622,0.3561347669,10.0680740089
1520439643595492587,-0.0333586017,0.1126031205,0.0652856033,0.1335923151,0.3585372624,10.1325163152
1520439643600506587,-0.0401416393,0.1166915005,0.0610005937,0.0758690649,0.3525460560,10.1714347551
1520439643605523587,-0.0471748309,0.1219467770,0.0561838514,0.0181458146,0.3393600070,10.2243059385
1520439643610539587,-0.0534546514,0.1277894885,0.0497468796,-0.0059055396,0.3477558632,10.2652068926
1520439643615554587,-0.0620024497,0.1301397986,0.0413936101,-0.0636287899,0.3429637972,10.3076105950
1520439643620570587,-0.0672863074,0.1316230625,0.0308632368,-0.0720467638,0.3921292102,10.3204281710
1520439643625586587,-0.0758357719,0.1348569958,0.0189995399,-0.1093263629,0.4460934327,10.3242248394
1520439643630603587,-0.0821301449,0.1337232325,0.0062866586,-0.1478085298,0.4976594680,10.2954955207
1520439643635618587,-0.0866657398,0.1302496127,-0.0029301779,-0.1393905558,0.5480227102,10.2558515786
1520439643640634587,-0.0912047180,0.1259091235,-0.0148591426,-0.0780596024,0.5887887079,10.2064048172
1520439643645650587,-0.0957483145,0.1186569744,-0.0276219758,-0.0804647378,0.6427502143,10.1959163114
1520439643650665587,-0.0962633006,0.1163562954,-0.0390017547,-0.0660339253,0.7134983753,10.1352753741
1520439643655681587,-0.0970281350,0.1146361017,-0.0495649830,-0.0022978365,0.7650564496,10.0962539740
1520439643660697587,-0.0970421975,0.1102922857,-0.0596085274,0.0337791949,0.8274089418,10.0842205772
1520439643665712587,-0.0942889855,0.1065250375,-0.0669473006,0.1636565079,0.8753644434,10.0340996114
1520439643670728587,-0.0902770016,0.1007018360,-0.0680814135,0.2201771904,0.9161308158,10.0137532690
1520439643675744587,-0.0847557742,0.0954598089,-0.0684022428,0.2839132792,0.9592949071,10.0061179411
1520439643680760587,-0.0787315141,0.0887530434,-0.0657591162,0.3813212639,0.9484950568,9.9656674611
1520439643685775587,-0.0701845077,0.0858199643,-0.0574102929,0.5027806029,0.9173079461,9.9598670774
1520439643690791587,-0.0591217923,0.0822934457,-0.0447418486,0.5773398012,0.8933193308,9.9359218716
1520439643695807587,-0.0488035252,0.0816622663,-0.0252861259,0.5617064209,0.8513506335,9.9779521466
1520439643700823587,-0.0362217221,0.0819039413,-0.0050162968,0.5484781760,0.8381611191,9.9990123561
1520439643705839587,-0.0271635560,0.0789426502,0.0138828830,0.5304396603,0.7602183965,10.0201825302
1520439643710853587,-0.0203568784,0.0812151966,0.0366139214,0.4234111339,0.7206550983,10.0619379068
1520439643715870587,-0.0158194487,0.0811703492,0.0539204577,0.3801186962,0.6595023084,10.0926346679
1520439643720885587,-0.0132872152,0.0860833501,0.0693746990,0.2995466595,0.6714999879,10.1422172594
1520439643725903587,-0.0112579322,0.0904119282,0.0853665194,0.1420102891,0.6942959254,10.1855655867
1520439643730918587,-0.0150074206,0.0961980782,0.1002980062,0.0794767680,0.7182836042,10.2582037880
1520439643735934587,-0.0185057356,0.1043263294,0.1111886225,0.0049175698,0.7614584663,10.3042110195
1520439643740950587,-0.0262696580,0.1191634921,0.1188917534,-0.0624262221,0.7998362048,10.3001805080
1520439643745965587,-0.0360431282,0.1372167518,0.1222943377,-0.0973006858,0.8430079762,10.2958292826
1520439643750981587,-0.0458163318,0.1564399203,0.1240825389,-0.1285674464,0.8789846241,10.2902878141
1520439643755997587,-0.0603587991,0.1806191256,0.1242941249,-0.1658470455,0.9353471274,10.2650285449
1520439643761013587,-0.0779186007,0.2077299340,0.1174993492,-0.0997058212,0.9917015760,10.2596812321
1520439643766027587,-0.0967325286,0.2336616002,0.1155678408,-0.0624262221,1.0216771832,10.2337219749
1520439643771044587,-0.1168084942,0.2555133907,0.1136075429,-0.0443877064,1.0720396760,10.2300108549
1520439643776060587,-0.1378970371,0.2753403928,0.1059520865,-0.0215389199,1.0936224241,10.2134973954
1520439643781075587,-0.1609970723,0.2937067709,0.0993714320,0.0458048720,1.0996128813,10.2337546567
1520439643786092587,-0.1826011895,0.3047956824,0.0902974870,0.0987178514,1.1259898496,10.1646474154
1520439643791107587,-0.2029517176,0.3132604402,0.0820128383,0.1095409608,1.1259890066,10.1157320238
1520439643796122587,-0.2253277691,0.3112374811,0.0725697087,0.1299846119,1.1403770995,10.0608982400
1520439643801139587,-0.2429315186,0.3074680854,0.0631043729,0.1552385339,1.1547648177,10.0397198105
1520439643806153587,-0.2577832989,0.2949596938,0.0530261187,0.1708719142,1.1727507065,9.9895779147
1520439643811170587,-0.2743979582,0.2783654022,0.0450843756,0.2165694873,1.1511626198,9.9182633894
1520439643816185587,-0.2844827212,0.2582741423,0.0381860043,0.2706850343,1.1943274603,9.8735330954
1520439643821201587,-0.2860300986,0.2335255344,0.0306951032,0.2959389563,1.2183083019,9.8291024322
1520439643826217587,-0.2885826321,0.2070202128,0.0261687353,0.3704981545,1.1943196866,9.8330486813
1520439643831233587,-0.2828419122,0.1793460462,0.0240529863,0.3223954460,1.2135096797,9.7777152643
1520439643836250587,-0.2708157343,0.1522498257,0.0246354743,0.3091672012,1.2350952376,9.7406343653
1520439643841265587,-0.2587847577,0.1298208567,0.0233597105,0.3223954460,1.2207045223,9.6754395803
1520439643846280587,-0.2404742978,0.1068188643,0.0193623734,0.2730901698,1.1667470433,9.6922421233
1520439643851296587,-0.2181379992,0.0867286504,0.0167325291,0.2827107115,1.1583523110,9.6631030693
1520439643856312587,-0.1925359136,0.0666433585,0.0127438879,0.2382157061,1.1547583552,9.6867825435
1520439643861328587,-0.1669373485,0.0436427645,0.0092741076,0.2285951644,1.0924038024,9.7055312929
1520439643866343587,-0.1408337199,0.0232684703,0.0044706722,0.1973284039,1.0612285866,9.6884338678
1520439643871360587,-0.1174955662,0.0020189395,-0.0003342986,0.1744796173,1.0348492768,9.7235463080
1520439643876376587,-0.0908898612,-0.0163045397,-0.0091812943,0.1696693465,0.9880831749,9.7375844599
1520439643881391587,-0.0675488888,-0.0343437416,-0.0158556323,0.1600488048,0.9401183073,9.7319141542
1520439643886407587,-0.0487305425,-0.0500456269,-0.0254797895,0.1732770496,0.9197318898,9.6922923829
1520439643891422587,-0.0321698398,-0.0634202357,-0.0339997780,0.1492256953,0.9089414992,9.6820777125
1520439643896437587,-0.0138395348,-0.0706823646,-0.0397708897,0.1913155653,0.9245270466,9.6816528341
1520439643901454587,-0.0030497784,-0.0791129852,-0.0455368921,0.1816950236,0.9077398300,9.7003571485
1520439643906470587,0.0079950640,-0.0834582966,-0.0534366052,0.1949232684,0.8897516934,9.6967595012
1520439643911486587,0.0150229905,-0.0872326122,-0.0575367620,0.1672642110,0.8693684603,9.6912378764
1520439643916501587,0.0210467803,-0.0892546439,-0.0632449887,0.1600488048,0.8933518308,9.6761768486
1520439643921517587,0.0240604335,-0.0895397480,-0.0651466338,0.1828975913,0.8861552087,9.6910693400
1520439643926533587,0.0230557204,-0.0898344400,-0.0640648064,0.1624539402,0.8669705541,9.7087191947
1520439643931549587,0.0228057388,-0.0898389091,-0.0624410643,0.1420102891,0.8393919166,9.7031343557
1520439643936566587,0.0195377524,-0.0913000254,-0.0613639287,0.1432128568,0.8297986996,9.7124291569
1520439643941580587,0.0135021347,-0.0953854138,-0.0600311211,0.1456179922,0.7710406315,9.6659772863
1520439643946595587,0.0079739094,-0.0962668324,-0.0581337012,0.1444154245,0.7506553380,9.6532252866
1520439643951612587,0.0019400442,-0.1018215269,-0.0522127287,0.1420102891,0.7194778743,9.6114419172
1520439643956628587,-0.0073585457,-0.1041649871,-0.0489666939,0.1299846119,0.7590504448,9.6254661070
1520439643961644587,-0.0143995782,-0.1082500410,-0.0479025652,0.1540359662,0.7122820951,9.6008725871
1520439643966658587,-0.0221896263,-0.1097173001,-0.0451937533,0.1744796173,0.6942933966,9.5437460875
1520439643971675587,-0.0277128845,-0.1085663113,-0.0405753128,0.1985309716,0.6811009787,9.5040119546
1520439643976691587,-0.0347461781,-0.1085792661,-0.0367746020,0.1564411016,0.6559223079,9.4800411647
1520439643981707587,-0.0442927619,-0.1065433157,-0.0367413049,0.1612513725,0.6271425631,9.4254016427
1520439643986723587,-0.0495667834,-0.1047999898,-0.0356359816,0.1456179922,0.6511265892,9.4022875426
1520439643991739587,-0.0586082133,-0.0992599439,-0.0382823999,0.1323897474,0.6679155853,9.3803191923
1520439643996753587,-0.0656389861,-0.0925492016,-0.0425469351,0.1492256953,0.6859013805,9.3859485012
1520439644001770587,-0.0739268685,-0.0861296077,-0.0470819056,0.1396051536,0.6990926744,9.3360570889
1520439644006786587,-0.0794398669,-0.0741828229,-0.0477921288,0.1227692057,0.6978948452,9.3222764016
1520439644011801587,-0.0859638629,-0.0645587668,-0.0517648207,0.1299846119,0.7086865471,9.2687370253
1520439644016816587,-0.0917340486,-0.0543487327,-0.0568166501,0.1059332577,0.6895021735,9.2108826382
1520439644021833587,-0.0949927436,-0.0458889348,-0.0608043016,0.1167563671,0.6942978922,9.1991511758
1520439644026848587,-0.0987504765,-0.0362703517,-0.0623472143,0.1035281222,0.6978963438,9.1678985366
1520439644031865587,-0.1017543130,-0.0266514732,-0.0638915272,0.1131486640,0.6739127860,9.1864225862
1520439644036881587,-0.0997380261,-0.0219870762,-0.0644007834,0.1191615025,0.7230770751,9.2049104213
1520439644041896587,-0.0982243799,-0.0170300348,-0.0654479749,0.1047306900,0.7146842160,9.1550868773
1520439644046911587,-0.0944519964,-0.0158673904,-0.0638228080,0.1107435285,0.7086880456,9.2003578129
1520439644051928587,-0.0886646079,-0.0132557770,-0.0589437088,0.1167563671,0.6918996114,9.2247206814
1520439644056943587,-0.0798595674,-0.0097717422,-0.0529813573,0.1011229868,0.6727145822,9.1807300863
1520439644061959587,-0.0700528913,-0.0074462958,-0.0494646782,0.0878947420,0.7182829485,9.2052194301
1520439644066975587,-0.0587393514,-0.0077514606,-0.0427242565,0.0590331169,0.7098912134,9.2182921203
1520439644071991587,-0.0451637222,-0.0063008763,-0.0384096098,0.0770716326,0.6931018426,9.1774578768
1520439644077007587,-0.0328457789,-0.0071884163,-0.0316755011,0.0133355438,0.7026999300,9.1699338824
1520439644082022587,-0.0187663680,-0.0063269600,-0.0249313209,-0.0467928419,0.6847175066,9.2135360016
1520439644087038587,-0.0056889848,-0.0031348213,-0.0181674892,-0.0960981181,0.6919161892,9.2081981732
1520439644092054587,0.0068798653,-0.0028501689,-0.0138598679,-0.0973006858,0.7314879168,9.2174684416
1520439644097069587,0.0174403006,-0.0025728600,-0.0071135998,-0.0672364930,0.7182950307,9.2450801329
1520439644102086587,0.0269995434,0.0003250590,0.0001956347,-0.0504005450,0.7122980173,9.2553814044
1520439644107101587,0.0365582608,0.0038101175,0.0058860401,-0.0516031127,0.7698568513,9.2460398295
1520439644112118587,0.0461176800,0.0070001495,0.0129269518,-0.1045160921,0.7123022320,9.2721781473
1520439644117132587,0.0531656046,0.0104769392,0.0213274834,-0.1009083890,0.6847217213,9.3047099576
1520439644122149587,0.0574469133,0.0133749758,0.0278348814,-0.1189469046,0.6823248454,9.3211578875
1520439644127165587,0.0612204337,0.0127776581,0.0337754441,-0.1381879881,0.6643392376,9.3852806260
1520439644132181587,0.0652537877,0.0182987855,0.0400327708,-0.1538213683,0.6199722595,9.4029082166
1520439644137196587,0.0667705467,0.0214893090,0.0457358882,-0.1694547486,0.6031855111,9.4565353749
1520439644142212587,0.0640124106,0.0229313084,0.0508925096,-0.2355959728,0.6163812071,9.4722741617
1520439644147227587,0.0617573584,0.0255426851,0.0547043604,-0.2367985405,0.5792079476,9.4990514272
1520439644152244587,0.0579924472,0.0272822311,0.0574301587,-0.2223677280,0.5360377685,9.5384659572
1520439644157260587,0.0489481043,0.0272706739,0.0604229656,-0.2259754311,0.5204492239,9.5873263199
1520439644162275587,0.0401544839,0.0252122392,0.0661052032,-0.2295831342,0.5060598198,9.6292126495
1520439644167290587,0.0278458437,0.0240200239,0.0742355571,-0.2115446185,0.5168506787,9.6406479891
1520439644172307587,0.0170412172,0.0216701455,0.0796487595,-0.2199625925,0.4952668067,9.6942095945
1520439644177323587,0.0039776769,0.0228225511,0.0826579263,-0.2283805665,0.5084580070,9.7303051298
1520439644182338587,-0.0045655189,0.0222306071,0.0848337159,-0.2163548894,0.5012622279,9.7406543908
1520439644187354587,-0.0168745080,0.0219176444,0.0910769178,-0.2091394831,0.4688848745,9.7650207557
1520439644192370587,-0.0256647843,0.0224823989,0.0965086172,-0.1622393423,0.5072537153,9.7982290143
1520439644197384587,-0.0327033548,0.0195599694,0.0986638218,-0.1574290715,0.5540198172,9.8690273710
1520439644202402587,-0.0399872455,0.0192518895,0.1038155057,-0.1778727226,0.5887964817,9.9087053406
1520439644207417587,-0.0445056612,0.0198190461,0.1089687249,-0.1466059620,0.5983871699,9.9269859577
1520439644212432587,-0.0502912110,0.0151524439,0.1097555279,-0.1237571755,0.7147020114,9.9510551587
1520439644217448587,-0.0530595519,0.0098962414,0.1135082889,-0.0924904150,0.7566694911,10.0053306663
1520439644222465587,-0.0550753174,0.0031812263,0.1180601719,-0.0600210867,0.7710566474,10.0479999240
1520439644227480587,-0.0583490747,-0.0052855020,0.1236832336,-0.0083106751,0.8106242539,10.0881330567
1520439644232496587,-0.0611171999,-0.0120059115,0.1301303381,-0.0155260813,0.8442007478,10.1160620005
1520439644237511587,-0.0633863735,-0.0192994235,0.1330549664,-0.0299568939,0.8777778035,10.1405747427
1520439644242528587,-0.0643911768,-0.0204719113,0.1354828540,-0.0047029719,0.8885681005,10.1682098674
1520439644247542587,-0.0651478019,-0.0228047397,0.1360075613,-0.0335645970,0.9329385440,10.1905282583
1520439644252559587,-0.0684126716,-0.0245688955,0.1414112081,-0.0143235136,0.9569198539,10.1542911280
1520439644257574587,-0.0701695170,-0.0219427533,0.1398112075,-0.0540082481,0.9761091915,10.1569829734
1520439644262591587,-0.0731850990,-0.0204804563,0.1373930106,-0.0684390607,0.9809068771,10.1745509160
1520439644267605587,-0.0729318164,-0.0175599567,0.1349798616,-0.0576159513,0.9437326810,10.1651846684
1520439644272622587,-0.0749372320,-0.0126013799,0.1328570207,-0.0708441961,0.9197509028,10.1769582503
1520439644277638587,-0.0779497796,-0.0093929610,0.1312638000,-0.1021109567,0.8801817040,10.1470854272
1520439644282654587,-0.0789506155,-0.0047246465,0.1288663231,-0.0900852795,0.8454056951,10.1493265754
1520439644287670587,-0.0827092697,0.0051896918,0.1257023581,-0.0828698733,0.7974395162,10.1063037923
1520439644292686587,-0.0869765041,0.0110259066,0.1219671116,-0.0467928419,0.7638607746,10.0769317832
1520439644297700587,-0.0919964080,0.0159796598,0.1212026008,-0.0119183782,0.7051001777,10.0150560047
1520439644302717587,-0.0992833213,0.0183158935,0.1182579156,0.0049175698,0.6775186367,9.9777304221
1520439644307731587,-0.1060661943,0.0183059509,0.1209759761,-0.0275517585,0.6199624252,9.9374275485
1520439644312748587,-0.1131054626,0.0171420266,0.1193568767,-0.0576159513,0.6079733624,9.8354632004
1520439644317763587,-0.1198904800,0.0197734840,0.1150607516,-0.0215389199,0.5851868846,9.8095670991
1520439644322780587,-0.1281792915,0.0235618760,0.1137523241,-0.0287543262,0.5887848678,9.7561751996
1520439644327796587,-0.1314414640,0.0288135303,0.1108224022,0.0121329761,0.5791885600,9.6604907781
1520439644332812587,-0.1359678734,0.0285291147,0.1075820294,0.0265637886,0.5635986106,9.6208526244
1520439644337827587,-0.1344526002,0.0343588529,0.1070825990,0.0446023043,0.5827834525,9.5823075886
1520439644342843587,-0.1306746222,0.0422349962,0.1044301625,0.0614382523,0.6031675284,9.5426109446
1520439644347858587,-0.1203620396,0.0504036271,0.1023089060,0.1035281222,0.6475324460,9.4712672209
1520439644352874587,-0.1085436400,0.0585794046,0.0977499362,0.0939075805,0.6823082675,9.4480840714
1520439644357890587,-0.0904411936,0.0649962246,0.0980357859,0.1287820442,0.7314703088,9.4418859621
1520439644362906587,-0.0680651695,0.0731659392,0.0972448562,0.1841001590,0.8010161450,9.3913075178
1520439644367921587,-0.0421746077,0.0807637327,0.0929258496,0.2490388155,0.8201973341,9.4022781749
1520439644372938587,-0.0127586998,0.0903880277,0.0940267884,0.3344211231,0.8273855268,9.4409529943
1520439644377953587,0.0264578233,0.1017724824,0.0921468586,0.4005623473,0.8213846734,9.4484500705
1520439644382968587,0.0629096593,0.1114009909,0.0926936373,0.4462599204,0.8405673611,9.4816887436
1520439644387984587,0.0973482859,0.1178183831,0.0951135172,0.4606907330,0.8465619393,9.5838111042
1520439644393001587,0.1370674027,0.1277395561,0.0956564516,0.5063883061,0.8009910441,9.6531393842
1520439644398015587,0.1765349070,0.1353200849,0.0996991647,0.5015780352,0.7590215039,9.7229557686
1520439644403032587,0.2129869587,0.1434843865,0.1029402870,0.4703112747,0.7374394115,9.8162526645
1520439644408048587,0.2469224623,0.1504887214,0.1037422711,0.4630958684,0.6918726373,9.9349060131
1520439644413064587,0.2775889681,0.1554498993,0.1053463987,0.4498676236,0.6535011740,10.0326922797
1520439644418079587,0.3022201698,0.1586662346,0.1047840219,0.4222085662,0.6103342730,10.1213265327
1520439644423095587,0.3190522673,0.1563475824,0.1025705996,0.3644853160,0.5863559602,10.1916403995
1520439644428111587,0.3316082820,0.1514062525,0.0998040120,0.3356236908,0.5407908719,10.2477486655
1520439644433127587,0.3383837219,0.1467576848,0.0956976527,0.3139774720,0.5012209238,10.2468358008
1520439644438143587,0.3393754623,0.1397779618,0.0907726056,0.2959389563,0.4904300649,10.2737512116
1520439644443159587,0.3298094412,0.1307558687,0.0853105076,0.3199903106,0.4904281917,10.3153542929
1520439644448174587,0.3157225031,0.1228946279,0.0809478864,0.3596750451,0.4640440116,10.3138316075
1520439644453190587,0.3011331046,0.1170816230,0.0733552096,0.3536622065,0.4544513565,10.3069266238
1520439644458204587,0.2777468828,0.1100989056,0.0660405216,0.3344211231,0.4832322253,10.2524650747
1520439644463222587,0.2518512795,0.1054448230,0.0592893773,0.3392313940,0.5000198166,10.1884839662
1520439644468236587,0.2259514186,0.1013902634,0.0463201236,0.3476493680,0.5323959524,10.1721004433
1520439644473252587,0.1980481140,0.1008242462,0.0360867397,0.3789161285,0.5647703086,10.1124951980
1520439644478269587,0.1688877861,0.0993813978,0.0266606578,0.3548647743,0.5839584286,10.0778462711
1520439644483284587,0.1404850986,0.1023168970,0.0145610631,0.3981572119,0.6762888695,10.0924427213
1520439644488301587,0.1155940438,0.1020558291,-0.0002749787,0.4691087070,0.7338420838,10.0393995168
1520439644493315587,0.0902062366,0.1038240579,-0.0113068828,0.5424653375,0.7278406685,10.0282320595
1520439644498331587,0.0650657725,0.1041420184,-0.0247852822,0.6230373742,0.7254361124,10.0611523340
1520439644503348587,0.0451962916,0.0995070527,-0.0377701834,0.6915837339,0.7506127227,10.0186234073
1520439644508364587,0.0285962007,0.0957431499,-0.0491312074,0.7204453590,0.7470130536,10.0253188577
1520439644513379587,0.0177719800,0.0893605076,-0.0610640656,0.7505095518,0.7302227461,10.0308533218
1520439644518393587,0.0089611844,0.0847247749,-0.0721756814,0.7541172550,0.7134344992,9.9308901974
1520439644523411587,0.0041634272,0.0745550399,-0.0836075493,0.8118405052,0.7158282844,9.8733809622
1520439644528427587,0.0036422782,0.0664208429,-0.0928674227,0.8551329428,0.6594653127,9.7916644623
1520439644533442587,0.0101601348,0.0597441400,-0.1013176112,0.8575380783,0.6654608275,9.7683923264
1520439644538459587,0.0171817299,0.0527711504,-0.1078771350,0.8563355106,0.6318849893,9.7149781511
1520439644543473587,0.0279747873,0.0472565604,-0.1144325443,0.8587406460,0.5707286404,9.7057172257
1520439644548489587,0.0437946132,0.0423267084,-0.1209928418,0.8407021303,0.5671326241,9.6849777183
1520439644553505587,0.0578522227,0.0347722497,-0.1270287882,0.8070302343,0.5755292295,9.6643786834
1520439644558522587,0.0739221124,0.0277977055,-0.1317112928,0.8070302343,0.5299618934,9.6074780645
1520439644563538587,0.0940122581,0.0214118763,-0.1380200941,0.8467149689,0.4831923261,9.5594894998
1520439644568552587,0.1113386891,0.0156084615,-0.1445898612,0.8767791617,0.4628045974,9.5510817444
1520439644573569587,0.1284186551,0.0112524013,-0.1476309496,0.9236793025,0.4340215745,9.5262482883
1520439644578585587,0.1429844919,0.0071918401,-0.1525589688,0.9248818702,0.3764627405,9.5169955599
1520439644583600587,0.1578018903,0.0028378076,-0.1566780402,0.9513383599,0.3692658375,9.5144207768
1520439644588616587,0.1698541234,-0.0015143943,-0.1618741612,0.9814025527,0.3536746705,9.5385483748
1520439644593632587,0.1811567685,-0.0038322988,-0.1651594992,0.9705794433,0.3692643389,9.5200442157
1520439644598647587,0.1881898817,-0.0055749355,-0.1662680896,0.9994410684,0.3608681081,9.5639329500
1520439644603664587,0.1927115435,-0.0073236558,-0.1654781914,1.0078590424,0.3776554184,9.6207796976
1520439644608678587,0.1947228123,-0.0073257818,-0.1643997416,1.0102641778,0.4112311630,9.6079399625
1520439644613695587,0.1939695274,-0.0084988996,-0.1617017748,1.0343155321,0.4567966259,9.6402014572
1520439644618711587,0.1897020185,-0.0067595505,-0.1589750431,1.0475437769,0.5251465997,9.6632489283
1520439644623726587,0.1804083566,-0.0053142835,-0.1559706540,1.0523540478,0.5587221569,9.7015201171
1520439644628742587,0.1711175527,-0.0024150075,-0.1518729660,1.0703925635,0.5755087180,9.7303817693
1520439644633758587,0.1610746596,0.0031122613,-0.1499182371,1.0427335061,0.6006928210,9.6771678076
1520439644638774587,0.1497728495,0.0057200935,-0.1460895843,1.0415309384,0.6222774423,9.7038877755
1520439644643790587,0.1342009902,0.0124172902,-0.1465506083,1.0595694540,0.6306700204,9.7257847494
1520439644648805587,0.1176238924,0.0194069345,-0.1475486341,1.1100772980,0.6330643675,9.7403986698
1520439644653821587,0.1002938664,0.0272711655,-0.1488091363,1.0956464854,0.6078835425,9.6952400723
1520439644658837587,0.0854768758,0.0363070181,-0.1519592348,1.0920387823,0.6294683511,9.6452819494
1520439644663853587,0.0701608512,0.0479651346,-0.1550883920,1.1124824334,0.5827002824,9.6532635753
1520439644668867587,0.0533303925,0.0555469191,-0.1595986015,1.1389389231,0.5407283071,9.6611819986
1520439644673884587,0.0390158192,0.0628273772,-0.1600575130,1.1004567563,0.5539218488,9.6929215845
1520439644678900587,0.0279634771,0.0704172536,-0.1667428243,1.0848233760,0.5383342409,9.6570624890
1520439644683916587,0.0164061146,0.0750879889,-0.1715556118,1.0836208083,0.5467283175,9.6384717054
1520439644688932587,0.0046014992,0.0820867882,-0.1752679643,1.1052670271,0.5395317891,9.6185115832
1520439644693947587,-0.0069535777,0.0876280348,-0.1787213531,1.0956464854,0.5407316788,9.6511440851
1520439644698962587,-0.0132301913,0.0940455026,-0.1821778738,1.1196978397,0.5395306652,9.6102361149
1520439644703978587,-0.0159862495,0.1007491775,-0.1832037924,1.1810287931,0.5287336247,9.5771096503
1520439644708995587,-0.0210038207,0.1077440792,-0.1844938334,1.1401414908,0.5287368092,9.6112097969
1520439644714011587,-0.0227558675,0.1150374728,-0.1879520858,1.1293183814,0.5167462479,9.6171375556
1520439644719027587,-0.0212345256,0.1243594547,-0.1868015639,1.1545723034,0.5035537364,9.6134181803
1520439644724042587,-0.0237377050,0.1307652876,-0.1853952593,1.1738133868,0.5335307484,9.6143638099
1520439644729058587,-0.0229809937,0.1325124332,-0.1848422291,1.2026750119,0.4831646028,9.5862405459
1520439644734074587,-0.0217244995,0.1325129255,-0.1848445628,1.2351443401,0.4855603548,9.5835978827
1520439644739090587,-0.0212220312,0.1333916466,-0.1864621023,1.2760316424,0.4651717832,9.6018140929
1520439644744106587,-0.0214729341,0.1336829326,-0.1864594125,1.3325523249,0.4783579258,9.6337911232
1520439644749120587,-0.0207273528,0.1275641529,-0.1865074975,1.3914781428,0.4735567748,9.6564651319
1520439644754136587,-0.0202267781,0.1264002686,-0.1870584151,1.4732527473,0.4711521250,9.6510229509
1520439644759153587,-0.0194769314,0.1226089230,-0.1857359859,1.4768604504,0.5287105844,9.7380925040
1520439644764168587,-0.0207403372,0.1158993022,-0.1830793242,1.5057220756,0.5371023195,9.7447762610
1520439644769184587,-0.0214960371,0.1147341972,-0.1833573623,1.5658504612,0.5694744279,9.7406730042
1520439644774199587,-0.0240099506,0.1135654892,-0.1825499497,1.5971172217,0.5502857460,9.7647924052
1520439644779216587,-0.0277884069,0.1074471226,-0.1834012714,1.6380045240,0.5814602126,9.8015526370
1520439644784230587,-0.0323166707,0.1033637818,-0.1826123559,1.6716764199,0.5898515731,9.8755939231
1520439644789247587,-0.0376044214,0.0940301250,-0.1799682344,1.6800943939,0.6078380238,9.8545758564
1520439644794263587,-0.0441503364,0.0841161206,-0.1784084092,1.6740815554,0.6090376325,9.8488224926
1520439644799278587,-0.0496908327,0.0756652602,-0.1790037025,1.6837020971,0.6102360237,9.8847541454
1520439644804294587,-0.0547337023,0.0637187108,-0.1798971522,1.6764866908,0.6198297090,9.8638964298
1520439644809311587,-0.0592767891,0.0500255079,-0.1813459657,1.7522484567,0.6102306850,9.8190068957
1520439644814325587,-0.0635637002,0.0374870152,-0.1787281651,1.7871229204,0.5814485987,9.8024254979
1520439644819341587,-0.0633242881,0.0258186208,-0.1739477291,1.7714895401,0.6114283269,9.8281155971
1520439644824357587,-0.0630890041,0.0138712252,-0.1737687964,1.7738946755,0.6545971948,9.7943479161
1520439644829374587,-0.0613417520,0.0033740587,-0.1708760897,1.8352256289,0.6390035927,9.8600083650
1520439644834388587,-0.0568237009,-0.0021677595,-0.1682212704,1.8544667123,0.6162184261,9.8366004225
1520439644839405587,-0.0502971097,-0.0100442367,-0.1639646942,1.8436436029,0.6186175499,9.8332169975
1520439644844420587,-0.0445256891,-0.0182094802,-0.1607911245,1.8460487383,0.6246130647,9.8459713242
1520439644849436587,-0.0387512811,-0.0257992389,-0.1549076496,1.8544667123,0.6162184261,9.8935454763
1520439644854452587,-0.0332288305,-0.0333869108,-0.1498353457,1.8460487383,0.6521932944,9.8994030512
1520439644859468587,-0.0261951096,-0.0377658484,-0.1458235718,1.8532641446,0.6713789792,9.8760712324
1520439644864483587,-0.0196675500,-0.0447674437,-0.1418308722,1.8207948163,0.6749789293,9.8519787379
1520439644869500587,-0.0136353706,-0.0456465187,-0.1391432839,1.8111742746,0.6881702232,9.8416002200
1520439644874515587,-0.0063443683,-0.0459474313,-0.1345597617,1.8328204935,0.7025582224,9.8576455123
1520439644879531587,0.0004472511,-0.0427468275,-0.1318424503,1.7799075141,0.7553245221,9.8836762508
1520439644884546587,0.0097571788,-0.0369286059,-0.1269454313,1.8195922486,0.7793042398,9.8972123246
1520439644889563587,0.0122822615,-0.0296502924,-0.1241890624,1.8027563007,0.7793055510,9.9182947866
1520439644894579587,0.0160654654,-0.0214987900,-0.1208872661,1.7991485975,0.7912972362,9.9601553907
1520439644899593587,0.0205969360,-0.0168406928,-0.1186957306,1.8231999518,0.7817022397,9.9657413641
1520439644904610587,0.0208577301,-0.0127743227,-0.1137952480,1.8364281966,0.7673115243,10.0004909591
1520439644909626587,0.0170976606,-0.0066603667,-0.1123888329,1.8424410352,0.7373325454,10.0318395541
1520439644914641587,0.0135877882,-0.0020061485,-0.1099118163,1.7895280558,0.7145529984,10.0091339150
1520439644919658587,0.0068123954,0.0038130563,-0.1076903859,1.7871229204,0.7697136452,10.0172385431
1520439644924673587,-0.0032347631,0.0070128910,-0.1071061713,1.8039588684,0.7265432787,10.0473325114
1520439644929689587,-0.0132769544,0.0122451331,-0.1038009360,1.8099717069,0.7157505466,10.0484466541
1520439644934705587,-0.0265889787,0.0151442907,-0.1002368722,1.7847177850,0.7289430581,10.0219502866
1520439644939721587,-0.0406506772,0.0206634283,-0.0958397628,1.8207948163,0.6977625973,10.0146566740
1520439644944736587,-0.0519484845,0.0258922644,-0.0914500103,1.8244025195,0.7301391078,10.0099414109
1520439644949751587,-0.0665115536,0.0305290387,-0.0840826318,1.7919331912,0.7541244451,9.9544511508
1520439644954767587,-0.0818295737,0.0348763185,-0.0775277139,1.7811100818,0.7205493562,9.9127520555
1520439644959784587,-0.0966410366,0.0421376405,-0.0709514986,1.7714895401,0.7253466671,9.8768145560
1520439644964798587,-0.1101987770,0.0473597630,-0.0643931785,1.6957277742,0.6785860912,9.8311118206
1520439644969815587,-0.1204828622,0.0557803825,-0.0548404670,1.6331942531,0.6953789274,9.7631376195
1520439644974831587,-0.1295177059,0.0612985755,-0.0493705085,1.6223711437,0.6869857874,9.7690618701
1520439644979847587,-0.1385528593,0.0659397012,-0.0428250356,1.6103454666,0.6462159496,9.7541108068
1520439644984863587,-0.1428161499,0.0688358473,-0.0368428607,1.5345837007,0.6558149736,9.6781373697
1520439644989878587,-0.1478340857,0.0708560875,-0.0303248631,1.4985066693,0.6534195025,9.6854637238
1520439644994894587,-0.1495850506,0.0722919249,-0.0227351956,1.5490145132,0.6773983773,9.6489222620
1520439644999909587,-0.1460597514,0.0731477892,-0.0154303212,1.5574324872,0.6881899855,9.6337219312
1520439645004925587,-0.1440475692,0.0699229510,-0.0078832239,1.5911043832,0.6989796268,9.6182757941
1520439645009941587,-0.1405248693,0.0675677581,0.0015615637,1.5682555966,0.7457478829,9.5696425399
1520439645014956587,-0.1327323749,0.0643437274,0.0096390182,1.5285708621,0.7793269055,9.5781310730
1520439645019972587,-0.1236793406,0.0634483516,0.0188141073,1.5381914038,0.7721313137,9.5606122892
1520439645024988587,-0.1111127839,0.0599355356,0.0266099251,1.5694581643,0.7817220019,9.5916764898
1520439645030004587,-0.0990455240,0.0593385532,0.0336172695,1.5309759975,0.8093052288,9.5769162854
1520439645035020587,-0.0847181584,0.0575769188,0.0406115211,1.5153426173,0.8200987102,9.5851929348
1520439645040037587,-0.0706465766,0.0534884803,0.0459651793,1.5129374818,0.8236963187,9.5910235566
1520439645045051587,-0.0540597209,0.0502715378,0.0526735690,1.5502170809,0.8416805216,9.5592652730
1520439645050067587,-0.0372255260,0.0441408484,0.0593592612,1.5610401903,0.8440779595,9.5742654602
1520439645055084587,-0.0201402558,0.0365475075,0.0681977384,1.5490145132,0.8033081218,9.5953408595
1520439645060100587,-0.0028038160,0.0298327891,0.0754191427,1.5405965392,0.8009104965,9.5408043677
1520439645065113587,0.0167957206,0.0239923820,0.0829135616,1.4961015338,0.8105070853,9.5958488660
1520439645070131587,0.0316194386,0.0184465879,0.0885252502,1.5081272110,0.7877224807,9.6399155031
1520439645075147587,0.0464459283,0.0149404853,0.0941525003,1.4888861276,0.7601437495,9.6331568151
1520439645080163587,0.0600177744,0.0137693374,0.0981765933,1.5021143724,0.7385581916,9.6888320174
1520439645085178587,0.0698160921,0.0102685501,0.1011077189,1.4828732890,0.7313648476,9.7680521032
1520439645090194587,0.0786134369,0.0093876444,0.1048723569,1.4792655859,0.7289668478,9.8041160196
1520439645095210587,0.0851507230,0.0108420279,0.1067651588,1.4780630182,0.7109798351,9.8599281746
1520439645100225587,0.0846471610,0.0114304275,0.1046061713,1.5021143724,0.7085796810,9.9212900417
1520439645105242587,0.0841454023,0.0131836367,0.1027266219,1.5273682944,0.6762009227,9.9408322549
1520439645110257587,0.0836388921,0.0114402317,0.1008203956,1.5045195078,0.6678087193,9.9654678594
1520439645115272587,0.0735876014,0.0128975867,0.0992269046,1.4768604504,0.6833996990,9.9889647534
1520439645120288587,0.0620216611,0.0117428167,0.0935580177,1.4828732890,0.6438275967,9.9935933921
1520439645125304587,0.0514628488,0.0108747260,0.0897833083,1.4624296379,0.6654137166,10.0088792013
1520439645130320587,0.0338703940,0.0108729331,0.0879221576,1.4467962576,0.6834020405,10.0101759709
1520439645135336587,0.0192895223,0.0082513178,0.0854943068,1.4359731482,0.7361650621,9.9997705699
1520439645140352587,0.0032055230,0.0097114089,0.0820181958,1.4455936899,0.7469565766,9.9694506626
1520439645145368587,-0.0158899301,0.0129127982,0.0807253913,1.4395808513,0.7637450108,9.9195206271
1520439645150382587,-0.0337312609,0.0158298512,0.0769931169,1.4035038200,0.7721418036,9.9070800099
1520439645155399587,-0.0505652442,0.0190328551,0.0754255659,1.4467962576,0.7445582021,9.8880912195
1520439645160415587,-0.0656323928,0.0277721257,0.0741675324,1.4467962576,0.7469564829,9.8427652666
1520439645165429587,-0.0791955747,0.0341830962,0.0720772762,1.4528090962,0.7313671891,9.8125061999
1520439645170446587,-0.0920033234,0.0405892630,0.0718794411,1.4792655859,0.6857977925,9.8111309796
1520439645175462587,-0.1038011291,0.0490289594,0.0741302137,1.4407834191,0.6654154025,9.7859582532
1520439645180478587,-0.1166072547,0.0548443444,0.0769039372,1.3842627365,0.6198524684,9.8074714169
1520439645185494587,-0.1243925865,0.0600934981,0.0742529622,1.3349574603,0.6522330999,9.7881633048
1520439645190510587,-0.1311691594,0.0679655063,0.0716201281,1.2880573195,0.6198599612,9.7874892302
1520439645195525587,-0.1374417310,0.0752476581,0.0716873733,1.2026750119,0.6102734877,9.7116281430
1520439645200539587,-0.1402014391,0.0799145550,0.0695637095,1.1774210899,0.5922883482,9.6607571552
1520439645205556587,-0.1419527842,0.0869129219,0.0674559634,1.1281158137,0.5934913286,9.6182365669
1520439645210572587,-0.1447122727,0.0915790903,0.0656028455,1.1076721626,0.5886963592,9.5963594951
1520439645215587587,-0.1434469772,0.0988678380,0.0643033595,1.0860259437,0.5934946067,9.5210261517
1520439645220604587,-0.1414320075,0.1035366055,0.0621708279,1.0042513393,0.5659207459,9.4858225278
1520439645225620587,-0.1404201200,0.1102468562,0.0592440871,0.9874153913,0.4999693338,9.4767535606
1520439645230636587,-0.1384040448,0.1178389386,0.0536166898,0.9284895733,0.4783893955,9.4552674213
1520439645235652587,-0.1341264957,0.1268961140,0.0452907483,0.8827920002,0.4604058483,9.4382975943
1520439645240667587,-0.1290983079,0.1327447129,0.0382916823,0.8274738854,0.4112453993,9.3877496358
1520439645245682587,-0.1218049533,0.1418023414,0.0302306861,0.7120273850,0.3752801779,9.3970434091
1520439645250698587,-0.1167727119,0.1529060598,0.0194839930,0.6663298119,0.3357121030,9.3742839103
1520439645255714587,-0.1129981524,0.1631351323,0.0087329643,0.6025937231,0.2637686416,9.3831094463
1520439645260730587,-0.1057067267,0.1733699538,-0.0036478739,0.5749346657,0.2505802511,9.2846092893
1520439645265744587,-0.0994208020,0.1841907927,-0.0173751285,0.5015780352,0.2158108921,9.2795464888
1520439645270762587,-0.0949053148,0.1886092240,-0.0343945747,0.4366393787,0.2026254051,9.2825157125
1520439645275777587,-0.0881244921,0.1936018408,-0.0478966786,0.3993597796,0.1786455001,9.3026584032
1520439645280793587,-0.0856155732,0.1988848968,-0.0616591710,0.3019517949,0.1810513674,9.2606048478
1520439645285809587,-0.0848729086,0.2021421406,-0.0808448758,0.2057463779,0.1726648772,9.2429551344
1520439645290825587,-0.0786070838,0.2004436428,-0.0984553656,0.1119460962,0.2062481146,9.3054290169
1520439645295840587,-0.0763613386,0.1984485431,-0.1147078815,0.0337791949,0.2290378705,9.3143026358
1520439645300857587,-0.0753756512,0.1938304904,-0.1309780715,0.0458048720,0.2158463892,9.3362791831
1520439645305871587,-0.0748966544,0.1857134411,-0.1464623674,0.0157406792,0.1798745180,9.4063355269
1520439645310888587,-0.0734140931,0.1752606104,-0.1600724936,-0.1105289307,0.1559015439,9.4168850963
1520439645315903587,-0.0736914587,0.1645171628,-0.1742226676,-0.1826829934,0.1894830953,9.4919318712
1520439645320920587,-0.0742284344,0.1491180203,-0.1908428573,-0.1874932643,0.1583058189,9.5013062459
1520439645325935587,-0.0727632014,0.1281855446,-0.2083206572,-0.1814804257,0.1535087890,9.5326302848
1520439645330950587,-0.0712940166,0.1072399572,-0.2209286309,-0.1442008266,0.1163325324,9.5508979808
1520439645335967587,-0.0718393154,0.0827947825,-0.2327479101,-0.0985032535,0.1235238158,9.5934454989
1520439645340982587,-0.0706291762,0.0548500406,-0.2432444040,0.0049175698,0.1367063057,9.5982367211
1520439645345999587,-0.0671525097,0.0298171163,-0.2526406839,0.1275794765,0.0623500462,9.6145474637
1520439645351014587,-0.0624222110,0.0018671968,-0.2607087988,0.2658747635,0.1043091901,9.6642947893
1520439645356029587,-0.0584393990,-0.0263969839,-0.2603908138,0.3428390971,0.1834464638,9.6344148905
1520439645361045587,-0.0539546127,-0.0578785809,-0.2554989361,0.4558804621,0.2338015575,9.6135090557
1520439645366060587,-0.0479471201,-0.0788719294,-0.2497181898,0.5304396603,0.3177355803,9.5685400182
1520439645371077587,-0.0426874552,-0.0963733295,-0.2422860911,0.5556935823,0.3489112644,9.5182916191
1520439645376093587,-0.0359206599,-0.1153354321,-0.2332446327,0.6338604837,0.3429094744,9.4942937581
1520439645381109587,-0.0283859370,-0.1252701465,-0.2219712916,0.6122142648,0.3573008454,9.4793825456
1520439645386125587,-0.0183281072,-0.1279199916,-0.2103764948,0.5809475043,0.4088663187,9.4285022615
1520439645391140587,-0.0117848973,-0.1279487543,-0.1987551561,0.5556935823,0.4412450770,9.4786886856
1520439645396155587,-0.0017206420,-0.1250586511,-0.1884708501,0.4967677644,0.4220634196,9.4479030560
1520439645401172587,0.0040717137,-0.1204146303,-0.1808707303,0.4823369518,0.4496447732,9.4515030537
1520439645406188587,0.0126349545,-0.1114009438,-0.1724307605,0.4450573527,0.4880201702,9.4611256433
1520439645411204587,0.0194360220,-0.1053047055,-0.1629275709,0.4390445142,0.4904189194,9.4925597166
1520439645416218587,0.0239798890,-0.0954191692,-0.1542029183,0.4173982953,0.5000137287,9.4811396134
1520439645421235587,0.0297793720,-0.0855302269,-0.1465627830,0.4378419465,0.5551725959,9.5238861641
1520439645426251587,0.0328156263,-0.0738896898,-0.1405274505,0.4438547850,0.5755575148,9.5086998887
1520439645431266587,0.0345997382,-0.0605078937,-0.1320415329,0.4306265402,0.6175284599,9.5459763240
1520439645436283587,0.0376413596,-0.0450800862,-0.1257067545,0.4089803213,0.6019413203,9.6484708844
1520439645441298587,0.0361525610,-0.0354846552,-0.1183258531,0.3837263994,0.5683673553,9.7486938121
1520439645446312587,0.0331605916,-0.0215146764,-0.1125320805,0.3969546442,0.6031413973,9.7613147291
1520439645451330587,0.0299163942,-0.0101759980,-0.1035112982,0.3464468003,0.5911539268,9.7897094898
1520439645456345587,0.0241557782,-0.0008758105,-0.0953130480,0.3223954460,0.5863592383,9.7771646848
1520439645461361587,0.0196486689,0.0078493845,-0.0898270365,0.2899261178,0.5288030268,9.7914825771
1520439645466376587,0.0128761772,0.0148297568,-0.0859734384,0.2754953052,0.5024230614,9.7881623313
1520439645471393587,0.0045852447,0.0136493148,-0.0816381945,0.2815081438,0.5108165760,9.8508513942
1520439645476409587,-0.0057230294,0.0075152765,-0.0776075552,0.3007492272,0.5060185158,9.8576416544
1520439645481425587,-0.0160342124,-0.0027068862,-0.0703614883,0.2766978729,0.4628513337,9.8218913891
1520439645486439587,-0.0245856921,-0.0141011822,-0.0604221219,0.4017649151,0.4460536272,9.7835018275
1520439645491455587,-0.0336448659,-0.0266495584,-0.0548194488,0.4294239725,0.4196703837,9.7704747532
1520439645496471587,-0.0381778930,-0.0386199491,-0.0467858174,0.4294239725,0.3884927327,9.7147222462
1520439645501488587,-0.0417035254,-0.0491337518,-0.0384723915,0.4378419465,0.3477213027,9.6670321662
1520439645506502587,-0.0437145434,-0.0538156311,-0.0314700338,0.3969546442,0.3081528531,9.6477122791
1520439645511519587,-0.0454769871,-0.0593664665,-0.0263686333,0.3801186962,0.3189464282,9.5618669732
1520439645516534587,-0.0406977421,-0.0590870515,-0.0212349060,0.3211928783,0.3117561750,9.5880147040
1520439645521549587,-0.0336540320,-0.0553035802,-0.0185136152,0.3223954460,0.3573234174,9.5972557157
1520439645526566587,-0.0230954824,-0.0541419197,-0.0155483203,0.3272057169,0.3980938172,9.5320890765
1520439645531582587,-0.0117831656,-0.0521014397,-0.0142010318,0.3620801805,0.4220739095,9.5526448342
1520439645536598587,0.0050668286,-0.0448204280,-0.0103890826,0.3596750451,0.4460569053,9.5665905850
1520439645541613587,0.0231750301,-0.0372519101,-0.0049539685,0.4426522173,0.4448513023,9.6087834318
1520439645546628587,0.0430432487,-0.0285149797,-0.0003248669,0.4811343841,0.3884887053,9.6014909652
1520439645551645587,0.0661837151,-0.0174529773,0.0070214110,0.4450573527,0.3549155832,9.6623063440
1520439645556662587,0.0910850297,-0.0063961133,0.0165287890,0.4258162693,0.3033540436,9.6730032021
1520439645561677587,0.1134671971,0.0002897267,0.0257369420,0.4089803213,0.2613854400,9.6708837118
1520439645566692587,0.1403685211,0.0043570635,0.0341050486,0.3668904514,0.1966351353,9.7131937155
1520439645571708587,0.1647547084,0.0096013371,0.0378874345,0.2766978729,0.1690619300,9.7373413686
1520439645576724587,0.1873712502,0.0090259722,0.0383820751,0.2454311124,0.1330901525,9.7620858033
1520439645581739587,0.2097359678,0.0090376485,0.0372583531,0.1985309716,0.1103101372,9.7602402300
1520439645586756587,0.2315975585,0.0081727890,0.0369405330,0.1624539402,0.0575507683,9.7896964315
1520439645591771587,0.2504377532,0.0020574559,0.0382115735,0.0975152837,0.0587549664,9.8588938285
1520439645596786587,0.2647560234,-0.0020155871,0.0378833012,0.1287820442,0.0875319014,9.9015607592
1520439645601802587,0.2790771477,-0.0060980997,0.0410721255,0.1612513725,0.1654735001,9.9371951782
1520439645606819587,0.2873665709,-0.0110593141,0.0450771196,0.1480231276,0.1846607771,9.9698452551
1520439645611834587,0.2906308054,-0.0169032071,0.0515196920,0.1083383931,0.2158415189,10.0073897257
1520439645616848587,0.2951504325,-0.0242064441,0.0590309989,0.0590331169,0.2374298866,10.0090107289
1520439645621866587,0.2966537287,-0.0309229945,0.0646585315,0.0349817626,0.1235134196,10.0628145391
1520439645626882587,0.2958908936,-0.0402599781,0.0691880731,0.0229560855,0.1786748156,10.1697950439
1520439645631898587,0.2938811890,-0.0464097065,0.0802375039,-0.0191337845,0.2866007319,10.2096123747
1520439645636913587,0.2903653694,-0.0490532133,0.0875287694,-0.0720467638,0.3405661719,10.2042640572
1520439645641929587,0.2838381038,-0.0470284648,0.0921557460,-0.0744518993,0.3297740955,10.2693780528
1520439645646944587,0.2770632284,-0.0447233566,0.1008436009,-0.1045160921,0.3273781561,10.2115658202
1520439645651960587,0.2720453396,-0.0415324793,0.1054766695,-0.2163548894,0.3477722537,10.1928780644
1520439645656977587,0.2637627733,-0.0339597306,0.1055498716,-0.2704704365,0.3309885025,10.1748268594
1520439645661991587,0.2592491640,-0.0257983654,0.1039972437,-0.2993320616,0.3321898907,10.1553501642
1520439645667007587,0.2539802940,-0.0188035622,0.1027076694,-0.2380011082,0.3141980077,10.2523908386
1520439645672024587,0.2489605666,-0.0135576961,0.1016748358,-0.1790752903,0.3034011546,10.2971514291
1520439645677039587,0.2487110280,-0.0121001435,0.1014158721,-0.0985032535,0.3477630750,10.3079453643
1520439645682056587,0.2489577909,-0.0170608663,0.1040830719,-0.0467928419,0.3729409965,10.3643625445
1520439645687071587,0.2512096636,-0.0263937547,0.1075248293,-0.0588185190,0.3453617034,10.4086679602
1520439645692087587,0.2549664714,-0.0371800612,0.1098704873,-0.0407800033,0.3177800687,10.4306000142
1520439645697102587,0.2569674883,-0.0450510264,0.1114300056,-0.0010952688,0.2206466037,10.4756320781
1520439645702118587,0.2627364430,-0.0558423728,0.1159362971,-0.0371723002,0.1487009881,10.4574590869
1520439645707134587,0.2654862089,-0.0675010414,0.1174655151,-0.1898983997,0.0587773511,10.4125475713
1520439645712150587,0.2677308798,-0.0771027330,0.1125181266,-0.2151523217,-0.0191648095,10.3768429219
1520439645717165587,0.2719809743,-0.0887360443,0.1048459838,-0.2115446185,-0.0791221117,10.3780284177
1520439645722182587,0.2724626369,-0.1015451116,0.1004185003,-0.2055317800,-0.0683303162,10.3512300574
1520439645727197587,0.2721896543,-0.1152300849,0.0965268395,-0.1947086706,-0.0563397549,10.3104379801
1520439645732213587,0.2676448503,-0.1306737801,0.0958763252,-0.1874932643,-0.0287600871,10.3196380066
1520439645737229587,0.2661187098,-0.1446630135,0.0965840551,-0.1610367746,-0.0407535519,10.2833657262
1520439645742245587,0.2580628456,-0.1563266442,0.0984038881,-0.1646444777,-0.0215670241,10.2566528210
1520439645747259587,0.2545322499,-0.1674093757,0.1015724957,-0.1309725818,-0.0647387018,10.1994221218
1520439645752276587,0.2464838580,-0.1761708161,0.1077432939,-0.0960981181,-0.0767328222,10.1956079367
1520439645757293587,0.2319065304,-0.1834873632,0.1174544390,-0.0960981181,-0.0827285243,10.1572630329
1520439645762308587,0.2203472978,-0.1884694673,0.1263661304,-0.1033135244,-0.0959185070,10.1282925272
1520439645767322587,0.2057757763,-0.1920002009,0.1369178133,-0.0744518993,-0.1163061421,10.0920050220
1520439645772339587,0.1876920145,-0.1896980664,0.1450855789,-0.0780596024,-0.1103101590,10.0536835400
1520439645777355587,0.1691084700,-0.1856492785,0.1538087083,-0.0347671647,-0.1175083733,10.0300262949
1520439645782371587,0.1480153675,-0.1795639688,0.1633637042,-0.0552108159,-0.1306973257,10.0139681282
1520439645787387587,0.1291950806,-0.1670753261,0.1759394123,-0.0672364930,-0.1199041253,10.0280203822
1520439645792402587,0.1058520382,-0.1513708425,0.1839486952,-0.0780596024,-0.0527514186,10.0664109952
1520439645797417587,0.0827613962,-0.1342064241,0.1908864431,-0.1057186598,-0.0503509836,10.1538386694
1520439645802434587,0.0586663979,-0.1152889933,0.1959455752,-0.0936929827,-0.0227716905,10.1618297317
1520439645807450587,0.0315569113,-0.0963763861,0.2023630375,-0.0287543262,-0.0035905013,10.1693139569
1520439645812465587,0.0052002706,-0.0762892043,0.2055414412,0.0037150021,0.0119957954,10.1550369915
1520439645817480587,-0.0214064419,-0.0570842873,0.2116896472,0.0602356846,0.0359742018,10.2183813846
1520439645822496587,-0.0492726868,-0.0410894629,0.2194390082,0.1251743411,0.0155837570,10.1468784091
1520439645827513587,-0.0771339607,-0.0215987527,0.2274855922,0.1768847527,0.0563505040,10.0963631441
1520439645832529587,-0.1057537061,-0.0053128392,0.2352385765,0.1744796173,0.0731386572,10.0591815769
1520439645837543587,-0.1348742028,0.0118448458,0.2438108012,0.1660616433,0.1354946149,10.0696620022
1520439645842561587,-0.1614783278,0.0298703845,0.2550904869,0.1925181330,0.1678693458,9.9740771146
1520439645847575587,-0.1855781718,0.0429499267,0.2638927999,0.2634696281,0.1954440496,9.9326845831
1520439645852591587,-0.2081646440,0.0568896446,0.2781098997,0.3320159877,0.2613914343,9.8936023307
1520439645857608587,-0.2322552594,0.0728655497,0.2934275450,0.4089803213,0.3093510570,9.8172670765
1520439645862623587,-0.2550928501,0.0885607606,0.3049529910,0.3969546442,0.3501227679,9.8196686574
1520439645867638587,-0.2734129112,0.1007647716,0.3150906295,0.4137905922,0.3753034056,9.8078587910
1520439645872655587,-0.2884588778,0.1161658226,0.3287637512,0.4594881653,0.3693041444,9.7667448071
1520439645877670587,-0.3012465854,0.1295302534,0.3416054732,0.4907549258,0.3705008497,9.6757920779
1520439645882686587,-0.3160477141,0.1426112532,0.3512021550,0.4763241133,0.3621079906,9.6561842767
1520439645887701587,-0.3230525494,0.1609438687,0.3594716545,0.4703112747,0.3309308079,9.6481381972
1520439645892718587,-0.3313176621,0.1766542596,0.3674529340,0.4907549258,0.3441197604,9.6084134540
1520439645897732587,-0.3390825451,0.1935434973,0.3705723462,0.4883497904,0.3225354201,9.5515128585
1520439645902750587,-0.3445870166,0.2086816718,0.3750269489,0.5388576343,0.3621031203,9.5312262107
1520439645907765587,-0.3495828648,0.2276051284,0.3805917018,0.5316422281,0.3680993844,9.4952641318
1520439645912781587,-0.3513143373,0.2441966033,0.3869442404,0.5460730406,0.3549077158,9.4625965031
1520439645917796587,-0.3527945933,0.2628373380,0.3897947771,0.5689218272,0.3393171108,9.4647135963
1520439645922813587,-0.3520118426,0.2814745883,0.3942643887,0.5941757491,0.3129340546,9.4377642047
1520439645927829587,-0.3502243435,0.2971867321,0.4030386370,0.5617064209,0.2589752644,9.4334842856
1520439645932844587,-0.3496958868,0.3123214421,0.4096464054,0.5484781760,0.2277986436,9.4963992176
1520439645937860587,-0.3438926599,0.3265884367,0.4146144281,0.5701243949,0.1882253238,9.5287671455
1520439645942875587,-0.3383394576,0.3411438036,0.4206673242,0.5388576343,0.1726389334,9.5244381026
1520439645947891587,-0.3343008738,0.3484037685,0.4304550860,0.4931600612,0.1534562457,9.5179287404
1520439645952908587,-0.3305222490,0.3518872911,0.4358856801,0.5003754675,0.0922995222,9.5307017299
1520439645957923587,-0.3280021412,0.3542062401,0.4407686237,0.4655010038,0.0083624087,9.5195015907
1520439645962938587,-0.3287588644,0.3480686589,0.4474869864,0.4210059985,-0.0012272493,9.5641055028
1520439645967954587,-0.3295245574,0.3372776664,0.4509232291,0.3416365294,0.0131686173,9.5718368682
1520439645972972587,-0.3282810477,0.3256133080,0.4543490687,0.3223954460,0.0227632393,9.5522583471
1520439645977987587,-0.3293051198,0.3107479327,0.4558608336,0.3392313940,0.0119696642,9.5125921059
1520439645983001587,-0.3341090556,0.2888907656,0.4562440618,0.3187877429,0.0383523458,9.5023060709
1520439645988018587,-0.3343916354,0.2658712895,0.4560689048,0.3392313940,0.0419481748,9.5590486306
1520439645993033587,-0.3359297450,0.2422627246,0.4580560023,0.3175851752,0.0359541586,9.5464815849
1520439645998049587,-0.3392301532,0.2180787142,0.4570659160,0.3608776128,0.0551370336,9.5390686297
1520439646003064587,-0.3392613480,0.1944736538,0.4579680297,0.3560673420,0.0815184975,9.5937104903
1520439646008081587,-0.3397946582,0.1705740982,0.4599510373,0.3729032900,0.0791189055,9.5679817912
1520439646013097587,-0.3373116768,0.1478441759,0.4608551530,0.3380288263,0.0695284982,9.5276555541
1520439646018110587,-0.3323202782,0.1233742153,0.4590358040,0.2947363886,0.0779258529,9.6059323957
1520439646023128587,-0.3253131181,0.1041557913,0.4550883695,0.3019517949,0.0911158356,9.6116600224
1520439646028143587,-0.3180565488,0.0843583388,0.4497832927,0.2730901698,0.0875206622,9.6328630430
1520439646033160587,-0.3105463048,0.0663092920,0.4444910877,0.2466336801,0.0791287398,9.6505608989
1520439646038174587,-0.3010219302,0.0511756065,0.4389468339,0.2370131384,0.1079088592,9.6401671796
1520439646043191587,-0.2904940656,0.0386822579,0.4269276194,0.2310002998,0.1007144850,9.6704484637
1520439646048206587,-0.2829763807,0.0282186784,0.4181761180,0.1961258361,0.1702673457,9.7392865820
1520439646053223587,-0.2731959438,0.0209721412,0.4053866815,0.1576436693,0.2446170490,9.8139658578
1520439646058239587,-0.2644234702,0.0131489971,0.3901597528,0.2009361070,0.2314231326,9.8495838011
1520439646063254587,-0.2594227253,0.0026975448,0.3765430924,0.2273925967,0.2554038806,9.9097343887
1520439646068269587,-0.2526625789,-0.0068761511,0.3618476507,0.1997335393,0.1966481540,9.8693858642
1520439646073286587,-0.2516759271,-0.0120828003,0.3477373817,0.1456179922,0.2062454921,10.0616569895
1520439646078302587,-0.2519634074,-0.0286466541,0.3308372870,0.0734639294,0.2710046945,10.1494569451
1520439646083317587,-0.2514932511,-0.0422956388,0.3136874771,-0.0311594616,0.3213767407,10.2794241517
1520439646088332587,-0.2590670330,-0.0576960813,0.2965392638,-0.0455902742,0.3105856008,10.3341959023
1520439646093349587,-0.2588495830,-0.0722185896,0.2791127055,-0.0600210867,0.3129850056,10.4040626616
1520439646098364587,-0.2666818774,-0.0922783692,0.2608472060,-0.1273648786,0.3333756378,10.4418868725
1520439646103381587,-0.2760226312,-0.1152635113,0.2466204645,-0.1165417692,0.3225825310,10.4906020971
1520439646108397587,-0.2826041122,-0.1414506149,0.2315524973,-0.1393905558,0.2950040808,10.5489585857
1520439646113411587,-0.2934593002,-0.1685120890,0.2159447034,-0.1646444777,0.2494387116,10.5167087960
1520439646118426587,-0.3045669749,-0.1964478150,0.2003307070,-0.1802778580,0.2338511037,10.4250667908
1520439646123443587,-0.3159234864,-0.2232210152,0.1858082532,-0.1850881289,0.2518385847,10.4413660863
1520439646128460587,-0.3242534192,-0.2441755414,0.1751123030,-0.1658470455,0.2542353669,10.4132850118
1520439646133475587,-0.3298140467,-0.2604624616,0.1628235128,-0.2211651602,0.2686293604,10.3603507905
1520439646138492587,-0.3336043229,-0.2697612913,0.1527491768,-0.2608498948,0.2542427661,10.3165896191
1520439646143506587,-0.3318588977,-0.2738130336,0.1427045884,-0.3065474679,0.2530471847,10.2682255345
1520439646148521587,-0.3293527583,-0.2734966262,0.1337741297,-0.3787015306,0.2866287362,10.2479765052
1520439646153539587,-0.3220652098,-0.2682248113,0.1248725956,-0.3558527441,0.2410596206,10.2117720815
1520439646158554587,-0.3084937361,-0.2609064727,0.1143516798,-0.3642707181,0.2386619953,10.1328305667
1520439646163570587,-0.2911460134,-0.2518529188,0.1092480195,-0.3787015306,0.2086846087,10.1016223741
1520439646168585587,-0.2707783923,-0.2393001121,0.1036243438,-0.3871195046,0.2110835451,10.0889183873
1520439646173601587,-0.2463896841,-0.2273321414,0.0993414838,-0.3053449002,0.1798995252,10.0835042704
1520439646178617587,-0.2184828864,-0.2177040666,0.0988219475,-0.2560396239,0.1774974043,10.0609459667
1520439646183633587,-0.1895679021,-0.2060366347,0.0985866519,-0.2139497540,0.1391216327,10.0652222844
1520439646188648587,-0.1591453091,-0.1975876820,0.1034644739,-0.1369854203,0.1666958682,10.0690948418
1520439646193664587,-0.1282235136,-0.1943958373,0.1129006273,-0.0936929827,0.1966710070,10.0581849307
1520439646198679587,-0.1003192446,-0.1944184166,0.1252939322,-0.0804647378,0.2518304362,10.0580023855
1520439646203696587,-0.0751780789,-0.1950314038,0.1401228380,-0.0263491907,0.3093849619,10.0841488406
1520439646208712587,-0.0502934064,-0.2006031254,0.1568082393,0.0037150021,0.4077121351,10.1314082305
1520439646213728587,-0.0301833334,-0.2096893575,0.1794278410,0.0518177106,0.4844533758,10.1111087433
1520439646218743587,-0.0135899464,-0.2170257471,0.2009851319,0.0782742003,0.5767851279,10.1374905039
1520439646223759587,0.0037650760,-0.2202897423,0.2252776046,0.0674510909,0.6751154855,10.1735264261
1520439646228775587,0.0160923576,-0.2264768361,0.2522626400,0.0590331169,0.6978998092,10.1584782727
1520439646233790587,0.0289308187,-0.2253747493,0.2776790437,0.0758690649,0.7770417659,10.1326700585
1520439646238806587,0.0400151630,-0.2193139873,0.3009721397,0.0746664971,0.7986263872,10.1012828287
1520439646243822587,0.0488463055,-0.2083064018,0.3264715958,0.0806793357,0.7902319359,10.0721788899
1520439646248837587,0.0564195464,-0.1981727338,0.3516961704,0.0818819034,0.7410670849,10.0675665520
1520439646253854587,0.0657572972,-0.1816169905,0.3729081974,0.0277663563,0.7242833337,10.0227860360
1520439646258870587,0.0771141498,-0.1586500000,0.3941653985,-0.1117314984,0.6667354579,9.9405255862
1520439646263886587,0.0872038761,-0.1379898113,0.4062085880,-0.2392036759,0.5911995392,9.9092999598
1520439646268901587,0.0960447217,-0.1109160131,0.4169502896,-0.3233834158,0.5360456359,9.8776330726
1520439646273917587,0.1046330493,-0.0800331900,0.4198755270,-0.4400324840,0.4665045764,9.8451341101
1520439646278932587,0.1124626505,-0.0491346368,0.4168501549,-0.5218070885,0.4413289963,9.8471167540
1520439646283948587,0.1187818712,-0.0170572961,0.4086961034,-0.5542764167,0.4545220698,9.8172041850
1520439646288964587,0.1230872749,0.0144452291,0.3972947888,-0.4905403280,0.4209411740,9.8224272783
1520439646293980587,0.1251322162,0.0450647019,0.3888670103,-0.4400324840,0.3909587297,9.8080191720
1520439646298995587,0.1286726756,0.0666518451,0.3803675158,-0.3979426141,0.3897563112,9.8180699599
1520439646304011587,0.1281974934,0.0890984549,0.3767519843,-0.3173705773,0.3621698062,9.7987183127
1520439646309028587,0.1264593092,0.1080537854,0.3709477422,-0.2536344885,0.3537708593,9.7934575542
1520439646314042587,0.1259754080,0.1211629785,0.3721308981,-0.1923035351,0.3453720996,9.7463830236
1520439646319058587,0.1232217256,0.1296149605,0.3711183179,-0.1417956912,0.3393724638,9.7249786667
1520439646324075587,0.1202159054,0.1363134379,0.3719866872,-0.1009083890,0.3153864709,9.7187933618
1520439646329090587,0.1184689904,0.1415409163,0.3782525254,-0.0419825710,0.2662171242,9.6938627339
1520439646334106587,0.1199842517,0.1429802189,0.3850244879,-0.0780596024,0.2470336872,9.6640168522
1520439646339122587,0.1204958154,0.1461703485,0.3907294722,-0.0888827118,0.2374414068,9.6315915217
1520439646344138587,0.1217614401,0.1452624510,0.4034361265,-0.0660339253,0.2158550996,9.5953637112
1520439646349153587,0.1265462991,0.1431816525,0.4193739050,-0.0467928419,0.1990656351,9.5765984978
1520439646354170587,0.1280547310,0.1358626654,0.4323017305,-0.0792621701,0.1870767597,9.5815748035
1520439646359185587,0.1265481023,0.1279553571,0.4468539859,-0.1273648786,0.2374444039,9.6029124847
1520439646364201587,0.1298162847,0.1206348739,0.4605901821,-0.2187600248,0.2314558199,9.6224022189
1520439646369216587,0.1288059693,0.1106997257,0.4707972081,-0.2716730042,0.2218668176,9.6345480357
1520439646374233587,0.1295547104,0.1039850652,0.4756145031,-0.2861038167,0.2050799756,9.6358670110
1520439646379248587,0.1247760652,0.0981423923,0.4804487353,-0.3077500356,0.1631117466,9.5989300224
1520439646384264587,0.1167300098,0.0928855790,0.4836702056,-0.3113577387,0.1415275000,9.5803918824
1520439646389280587,0.1081779343,0.0885180195,0.4812178149,-0.2728755719,0.1523167667,9.5648989251
1520439646394295587,0.0986191659,0.0823988453,0.4798361361,-0.2728755719,0.0983554476,9.5672758333
1520439646399310587,0.0847843265,0.0780474290,0.4706298991,-0.3161680096,0.0983588194,9.4758878430
1520439646404326587,0.0689381751,0.0739909801,0.4598063437,-0.3113577387,0.0384014236,9.4119815722
1520439646409343587,0.0513258516,0.0658595577,0.4470611108,-0.3029397647,0.0048248361,9.3991487948
1520439646414358587,0.0347208837,0.0609410433,0.4316330060,-0.2873063845,-0.0047695049,9.3513580817
1520439646419373587,0.0178628174,0.0563210992,0.4135021321,-0.2909140876,0.0132178825,9.3420785051
1520439646424389587,0.0015113124,0.0560786758,0.3929687579,-0.2259754311,0.0132128248,9.3193656970
1520439646429405587,-0.0178573193,0.0543766915,0.3729709608,-0.1550239360,-0.0083772287,9.3256690105
1520439646434421587,-0.0324465727,0.0535390765,0.3572996995,-0.1297700141,-0.0167731786,9.3277556776
1520439646439438587,-0.0500543132,0.0515391125,0.3400018712,-0.1778727226,-0.0155702917,9.3479791577
1520439646444453587,-0.0669109681,0.0492560721,0.3197244148,-0.2163548894,0.0120129351,9.3192732258
1520439646449468587,-0.0832678362,0.0466898568,0.2964677970,-0.2259754311,0.0168102461,9.3205243329
1520439646454485587,-0.0998782927,0.0417895531,0.2742760448,-0.2584447593,0.0132153537,9.3045738621
1520439646459501587,-0.1152379240,0.0351523610,0.2480104321,-0.2259754311,0.0479878971,9.2577381565
1520439646464515587,-0.1308480622,0.0290978395,0.2217497322,-0.2079369154,0.0611770369,9.2389554147
1520439646469532587,-0.1474591421,0.0209799227,0.2041328064,-0.1959112383,0.0228036067,9.2237679116
1520439646474548587,-0.1598014350,0.0128746061,0.1824497577,-0.1959112383,0.0407907131,9.1377517189
1520439646479563587,-0.1698797920,0.0073970069,0.1591592410,-0.2055317800,0.0539820070,9.0657795714
1520439646484579587,-0.1814639230,0.0016194198,0.1388453064,-0.1971138060,0.0863581428,9.0819360792
1520439646489595587,-0.1905314159,-0.0021204049,0.1196244497,-0.1790752903,0.0851575975,9.0131951794
1520439646494611587,-0.1968280235,-0.0014905639,0.1012434430,-0.1911009674,0.1247301681,9.0051386341
1520439646499626587,-0.2013624187,0.0003004053,0.0847618829,-0.2163548894,0.1702994710,9.0355557482
1520439646504643587,-0.2048928967,0.0003398191,0.0696178469,-0.1838855611,0.2230591208,9.0224046773
1520439646509659587,-0.2046507637,0.0044681058,0.0515219283,-0.1442008266,0.3165889831,9.0393593613
1520439646514673587,-0.2046582163,0.0088833080,0.0350519749,-0.1189469046,0.3585569310,9.0588290754
1520439646519690587,-0.2029029743,0.0141653403,0.0215614286,-0.0648313576,0.3573535759,9.0768978205
1520439646524705587,-0.1953670242,0.0197395646,0.0086034625,-0.0071081073,0.3921241525,9.0681670593
1520439646529721587,-0.1908457818,0.0253096938,-0.0032667193,0.0037150021,0.3717379224,9.1471073814
1520439646534737587,-0.1853217670,0.0279612725,-0.0132671776,0.0253612209,0.3777319386,9.2212680568
1520439646539753587,-0.1770339943,0.0297375954,-0.0224678014,0.0470074397,0.4101070442,9.2314850892
1520439646544769587,-0.1677455543,0.0294804478,-0.0338502209,0.0518177106,0.4364877588,9.3278704917
1520439646549783587,-0.1607143228,0.0300856413,-0.0411635821,0.0818819034,0.4904467364,9.4460639284
1520439646554801587,-0.1531877111,0.0245683144,-0.0471718322,0.0818819034,0.5180269661,9.4750906324
1520439646559816587,-0.1431438497,0.0199159276,-0.0493904376,0.0626408200,0.5576000987,9.5472922503
1520439646564831587,-0.1386353331,0.0120641578,-0.0545992340,0.0301714918,0.5851828572,9.6045264458
1520439646569848587,-0.1336236072,0.0030397624,-0.0571123971,0.0313740595,0.6199578358,9.6579394518
1520439646574864587,-0.1296213459,-0.0097759393,-0.0585704100,0.1179589348,0.6463321816,9.7430696148
1520439646579879587,-0.1248681364,-0.0249231504,-0.0597770617,0.0999204191,0.6895026418,9.7710945494
1520439646584895587,-0.1208686116,-0.0429983422,-0.0558641721,0.1083383931,0.6703157394,9.8442463925
1520439646589911587,-0.1216500490,-0.0631034416,-0.0562867108,0.0890973097,0.6703172380,9.9118380228
1520439646594926587,-0.1196649098,-0.0808734679,-0.0577787822,0.1372000182,0.6787074745,9.8869566121
1520439646599941587,-0.1184277315,-0.0957365003,-0.0568123096,0.1612513725,0.6151511589,9.9100273650
1520439646604958587,-0.1176944721,-0.1120588374,-0.0550443813,0.1359974505,0.6091574236,9.9474676245
1520439646609973587,-0.1151983808,-0.1254659117,-0.0535280351,0.1444154245,0.5539963085,10.0206545478
1520439646614988587,-0.1099374692,-0.1365320856,-0.0552455889,0.1480231276,0.5192209553,10.1147870037
1520439646620006587,-0.1081923223,-0.1461441721,-0.0564044013,0.1275794765,0.4676595093,10.1173605592
1520439646625022587,-0.1071986060,-0.1531304510,-0.0588945353,0.1143512317,0.4065043779,10.1977368840
1520439646630037587,-0.1024343526,-0.1598260539,-0.0605778094,0.0229560855,0.3717364238,10.2986047592
1520439646635053587,-0.0996817169,-0.1656402781,-0.0652266853,-0.0299568939,0.3501560172,10.4095445054
1520439646640068587,-0.0986832843,-0.1659101443,-0.0730766063,-0.0131209459,0.2901976848,10.4605734356
1520439646645084587,-0.1009565311,-0.1693850634,-0.0814860056,-0.0696416284,0.2698166996,10.4960077706
1520439646650099587,-0.1027226051,-0.1696552842,-0.0896013385,-0.0419825710,0.2470308774,10.4655450289
1520439646655116587,-0.1107782341,-0.1754657292,-0.0972061501,0.0277663563,0.2050555303,10.5567164349
1520439646660131587,-0.1213494937,-0.1841953747,-0.1032052500,0.0421971689,0.1546905086,10.5566250865
1520439646665146587,-0.1334254687,-0.1914723304,-0.1078377046,0.0614382523,0.1534898696,10.5761954222
1520439646670163587,-0.1500257910,-0.1996259404,-0.1121978816,0.0939075805,0.1690761663,10.6072420710
1520439646675179587,-0.1691439865,-0.2118621035,-0.1157728769,0.1949232684,0.1450854904,10.6039579451
1520439646680195587,-0.1867548320,-0.2255596976,-0.1174679666,0.2502413832,0.1762588331,10.6580098756
1520439646685211587,-0.2038634405,-0.2427682777,-0.1137797489,0.3717007222,0.1882407776,10.6033573496
1520439646690226587,-0.2192059241,-0.2570725214,-0.1062849249,0.4486650559,0.2110184515,10.6781253655
1520439646695241587,-0.2358113704,-0.2766243642,-0.0980161451,0.4534753267,0.2661785363,10.6617547403
1520439646700257587,-0.2531614258,-0.2877190667,-0.0923869547,0.4246137016,0.2697782054,10.7503550942
1520439646705274587,-0.2664981330,-0.3034707042,-0.0881535306,0.5400602021,0.2877563204,10.7654838841
1520439646710290587,-0.2758070218,-0.3148536407,-0.0825414983,0.6242399420,0.2817540621,10.7774539603
1520439646715304587,-0.2813489334,-0.3271048833,-0.0785664116,0.7036094110,0.3093281103,10.8510317448
1520439646720321587,-0.2871456211,-0.3425643679,-0.0735331284,0.7781686092,0.2445687205,10.8654770471
1520439646725337587,-0.2894200833,-0.3571577902,-0.0649826135,0.8419046980,0.2757414075,10.8927177312
1520439646730353587,-0.2846623967,-0.3729052526,-0.0597006100,0.9320972765,0.2589464171,10.8790726392
1520439646735368587,-0.2784017509,-0.3900995774,-0.0579496188,0.9777948496,0.2217695049,10.8740155207
1520439646740384587,-0.2678728514,-0.4096211193,-0.0570359843,1.0595694540,0.1330267447,10.8500632289
1520439646745400587,-0.2523112008,-0.4244799965,-0.0555550231,1.0535566155,0.0370959791,10.8211617025
1520439646750415587,-0.2322250735,-0.4393407437,-0.0527297335,0.9922256621,-0.0864107079,10.8114198067
1520439646755430587,-0.2071084769,-0.4489458591,-0.0531203135,0.9345024119,-0.2315022034,10.7772588208
1520439646760447587,-0.1794646374,-0.4480601470,-0.0534355297,0.9164638962,-0.4065753003,10.6183913985
1520439646765461587,-0.1467920456,-0.4436692956,-0.0561683164,0.8755765940,-0.6392053580,10.5492875850
1520439646770478587,-0.1120992504,-0.4314073605,-0.0599269972,0.7613326612,-0.8826219663,10.5157726226
1520439646775494587,-0.0768934252,-0.4095207980,-0.0668598004,0.6170245357,-1.0828671778,10.4766974706
1520439646780510587,-0.0414276411,-0.3838577931,-0.0694354358,0.4907549258,-1.2315507560,10.4234507337
1520439646785526587,-0.0054591652,-0.3558533170,-0.0757818625,0.3801186962,-1.3538544625,10.3851339771
1520439646790542587,0.0232240675,-0.3249327518,-0.0839863447,0.1985309716,-1.4449749920,10.3579367115
1520439646795557587,0.0451178801,-0.2957565962,-0.0946264769,-0.0035004042,-1.5492844740,10.3088705596
1520439646800573587,0.0662531859,-0.2665654389,-0.1109466728,-0.1898983997,-1.6152226800,10.3049384372
1520439646805589587,0.0775770209,-0.2429035009,-0.1313490935,-0.3426244993,-1.6367953128,10.2646088451
1520439646810605587,0.0803530067,-0.2195253685,-0.1557960572,-0.4424376194,-1.5900210625,10.2074275629
1520439646815620587,0.0816164048,-0.1993515997,-0.1808057662,-0.4171836975,-1.4952909359,10.1071449988
1520439646820637587,0.0743380146,-0.1788963498,-0.2033624706,-0.3678784212,-1.4473291590,10.0903483026
1520439646825652587,0.0630384393,-0.1616610168,-0.2210663351,-0.2909140876,-1.3885772725,10.0616504264
1520439646830668587,0.0492156198,-0.1537589859,-0.2358606663,-0.2247728634,-1.3154348580,10.0260710000
1520439646835684587,0.0298622816,-0.1505358421,-0.2452693810,-0.1682521809,-1.2207071665,9.9882398780
1520439646840699587,0.0090029067,-0.1473191164,-0.2525109282,-0.1297700141,-1.1259780702,9.9505843319
1520439646845716587,-0.0146223430,-0.1467324904,-0.2573324362,-0.0924904150,-1.0012703696,9.9129112573
1520439646850731587,-0.0377435054,-0.1473214037,-0.2583761274,-0.0239440553,-0.8921539297,9.8819219164
1520439646855747587,-0.0596018892,-0.1458817878,-0.2550778563,0.0433997366,-0.7974270812,9.8323640094
1520439646860762587,-0.0769285397,-0.1400776446,-0.2487786351,0.0385894657,-0.7290757025,9.8149120179
1520439646865777587,-0.0902300612,-0.1339936534,-0.2376148322,0.1023255545,-0.6619288027,9.7991182956
1520439646870793587,-0.0995037252,-0.1252972810,-0.2221097549,0.1047306900,-0.5911797051,9.7897287428
1520439646875809587,-0.1047556474,-0.1186514083,-0.2020284264,0.0915024451,-0.5695941472,9.7840257305
1520439646880825587,-0.1057277545,-0.1093952414,-0.1767946525,0.1047306900,-0.5192312797,9.7733885671
1520439646885842587,-0.0999242101,-0.1077153275,-0.1505490967,0.0470074397,-0.4688628862,9.7483341305
1520439646890857587,-0.0908564743,-0.1115864653,-0.1183998372,0.0241586532,-0.4772550896,9.8159690613
1520439646895873587,-0.0792699871,-0.1113779635,-0.0859535759,-0.0479954096,-0.4388769765,9.8061746503
1520439646900888587,-0.0588889701,-0.1137972178,-0.0502971069,-0.0792621701,-0.4196882945,9.7739202416
1520439646905905587,-0.0390074301,-0.1150562298,-0.0127369909,-0.1526188006,-0.4004963345,9.7455619418
1520439646910920587,-0.0193779339,-0.1157274722,0.0229342168,-0.2548370562,-0.3609167394,9.7697611624
1520439646915935587,0.0072851187,-0.1166793297,0.0556141283,-0.3113577387,-0.3561157757,9.7284694404
1520439646920951587,0.0331951098,-0.1173415548,0.0888387548,-0.3354090930,-0.3693044472,9.6589877670
1520439646925968587,0.0568373937,-0.1188627942,0.1161089029,-0.3558527441,-0.4124719102,9.6638774250
1520439646930983587,0.0837471347,-0.1197992561,0.1431068838,-0.4328170777,-0.4724229371,9.6519014321
1520439646935999587,0.1093984567,-0.1180955388,0.1633635588,-0.4869326248,-0.5863370627,9.5374869954
1520439646941014587,0.1345386542,-0.1195834081,0.1784563412,-0.5097814114,-0.6702751128,9.5215212298
1520439646946031587,0.1561552657,-0.1216401277,0.1878697477,-0.4700966768,-0.7925905267,9.4294448632
1520439646951045587,0.1762691103,-0.1161039579,0.1908506534,-0.5013634374,-0.8297614447,9.3298410641
1520439646956063587,0.1905978559,-0.1108454117,0.1878880608,-0.4664889737,-0.9065091479,9.2319563630
1520439646961078587,0.2049331564,-0.1009254415,0.1852315835,-0.4027528849,-0.9316960608,9.1651183458
1520439646966093587,0.2119724796,-0.0956639231,0.1801181588,-0.2957243585,-0.9616829071,9.1455115260
1520439646971110587,0.2124755674,-0.0930310674,0.1763495906,-0.1886958320,-0.9724835067,9.1131024132
1520439646976125587,0.2109687937,-0.0895226605,0.1717797877,-0.1538213683,-0.9928716100,9.0581620795
1520439646981141587,0.2044340206,-0.0871803039,0.1666693352,-0.0516031127,-1.0168623796,9.0083804904
1520439646986157587,0.1918671464,-0.0874715122,0.1647966270,0.0337791949,-1.0324578549,8.9076202528
1520439646991173587,0.1755217296,-0.0932954043,0.1609948597,0.0770716326,-1.0168724012,8.8746436386
1520439646996187587,0.1584292732,-0.0965080575,0.1612726889,0.0566279814,-1.0396544770,8.8888105695
1520439647001204587,0.1378128231,-0.1049713812,0.1631403120,0.1203640702,-1.0372611601,8.8335670969
1520439647006219587,0.1154366266,-0.1119697302,0.1617757668,0.1119460962,-1.0432562066,8.8046012802
1520439647011236587,0.0907884024,-0.1262521217,0.1598187533,0.1035281222,-1.0576452361,8.7849408004
1520439647016250587,0.0653993955,-0.1297484820,0.1560515727,0.0289689240,-1.0660334122,8.7670803960
1520439647021267587,0.0405145741,-0.1306156288,0.1498685535,0.0421971689,-1.0756275658,8.7355831083
1520439647026283587,0.0148808233,-0.1294506635,0.1464079550,0.0373868980,-1.0576400848,8.6926130622
1520439647031299587,-0.0107598705,-0.1303115498,0.1377914228,0.0614382523,-1.1008110133,8.6447731551
1520439647036315587,-0.0363984943,-0.1288377177,0.1278399459,0.0361843303,-1.0936142039,8.6659305365
1520439647041331587,-0.0640389779,-0.1227098051,0.1206332310,-0.0047029719,-1.0780221939,8.6453947158
1520439647046345587,-0.0889162682,-0.1151136888,0.1096448551,0.0277663563,-1.0456479313,8.6055342127
1520439647051362587,-0.1125349983,-0.1066458403,0.0997429984,0.0818819034,-1.0072796524,8.6049700663
1520439647056377587,-0.1389188114,-0.1002253225,0.0922656272,0.0650459554,-0.9844946732,8.6027874317
1520439647061393587,-0.1610281254,-0.0923476652,0.0853325288,0.0939075805,-0.9449252870,8.5280907091
1520439647066407587,-0.1818772955,-0.0824327376,0.0794948420,0.0951101483,-0.9437262403,8.5118078193
1520439647071424587,-0.2014720845,-0.0745591947,0.0744508977,0.1359974505,-0.9257423184,8.4927980041
1520439647076440587,-0.2185580212,-0.0698906254,0.0696483781,0.1203640702,-0.9461264880,8.5022672002
1520439647081456587,-0.2346321606,-0.0593896013,0.0632651780,0.1191615025,-0.9065547603,8.4394845435
1520439647086471587,-0.2479436007,-0.0515165107,0.0592917492,0.1396051536,-0.8993615100,8.4323056778
1520439647091488587,-0.2562279195,-0.0424744561,0.0547767865,0.1636565079,-0.9209479108,8.4251197611
1520439647096503587,-0.2620007044,-0.0354754791,0.0518648703,0.1901129976,-0.8969671629,8.3830016807
1520439647101519587,-0.2627475599,-0.0296451702,0.0508285486,0.1841001590,-0.8801787287,8.4086110022
1520439647106536587,-0.2624885143,-0.0226460157,0.0487170688,0.2201771904,-0.8753849768,8.4291737643
1520439647111551587,-0.2566997066,-0.0147705415,0.0466019903,0.2646721958,-0.8609987571,8.4171052056
1520439647116566587,-0.2499058839,-0.0086502650,0.0471771653,0.2839132792,-0.8825847833,8.4634247310
1520439647121583587,-0.2385906151,-0.0028145018,0.0458478950,0.3103697689,-0.8861842651,8.4585221520
1520439647126599587,-0.2252627171,0.0027219233,0.0477592186,0.2779004406,-0.8885800171,8.5518120435
1520439647131614587,-0.2074039560,0.0155527466,0.0467417134,0.2622670604,-0.9365444165,8.5857131575
1520439647136630587,-0.1920582695,0.0289682681,0.0446511380,0.2766978729,-0.9293506978,8.6018356961
1520439647141646587,-0.1721872674,0.0441353258,0.0420244084,0.3007492272,-0.9425431157,8.6573973675
1520439647146661587,-0.1543205009,0.0622081569,0.0421291023,0.2899261178,-0.9485379749,8.7074807498
1520439647151677587,-0.1377113302,0.0788206592,0.0433071980,0.3079646335,-0.9269548521,8.7444727324
1520439647156693587,-0.1180872792,0.0942658913,0.0455529843,0.3548647743,-0.9269585049,8.8172313043
1520439647161709587,-0.0997180131,0.1085341665,0.0518504003,0.3235980137,-0.9257569293,8.8709930883
1520439647166724587,-0.0853760401,0.1178466009,0.0583880373,0.3187877429,-0.9089685887,8.9616707662
1520439647171740587,-0.0740518092,0.1254088184,0.0651884823,0.2682798989,-0.8801852849,9.0051336407
1520439647176756587,-0.0609784758,0.1248093161,0.0732761434,0.2899261178,-0.8094376858,9.0931768992
1520439647181772587,-0.0509267579,0.1189600687,0.0826821192,0.2827107115,-0.7758611919,9.1896723363
1520439647186787587,-0.0471596238,0.1110664829,0.0928958390,0.2370131384,-0.7314894372,9.2563160682
1520439647191803587,-0.0418872019,0.1023037048,0.1014768140,0.1889104299,-0.6319570357,9.3624423152
1520439647196819587,-0.0423889332,0.0979101587,0.1098313239,0.1323897474,-0.5887835784,9.4756783202
1520439647201836587,-0.0411334192,0.0926453334,0.1173642598,0.0878947420,-0.5384162152,9.5667095234
1520439647206851587,-0.0426408751,0.0873750545,0.1265256051,0.0674510909,-0.4700636188,9.6237869108
1520439647211866587,-0.0466646986,0.0827004003,0.1305556917,0.0470074397,-0.4208972693,9.6925044472
1520439647216881587,-0.0511989528,0.0716121759,0.1356199875,0.0169432469,-0.3693318896,9.8322040665
1520439647221898587,-0.0572453986,0.0576109723,0.1401237610,0.0506151429,-0.3933173205,9.9760055620
1520439647226913587,-0.0673176791,0.0421614688,0.1408362441,0.0602356846,-0.3981146315,10.1467517602
1520439647231929587,-0.0761340379,0.0261289602,0.1418124933,0.0698562263,-0.4005136616,10.2361455429
1520439647236946587,-0.0877201410,0.0054303023,0.1438404907,0.1059332577,-0.4340924033,10.3741222633
1520439647241961587,-0.1025704865,-0.0123514196,0.1442735110,0.1552385339,-0.4868584219,10.4480710199
1520439647246976587,-0.1191749488,-0.0251744663,0.1425832236,0.2117592164,-0.5324301600,10.5742390082
1520439647251993587,-0.1352801144,-0.0409133466,0.1416814096,0.2430259770,-0.6127750036,10.6425795158
1520439647257009587,-0.1526394886,-0.0557822078,0.1421413279,0.2730901698,-0.6427558557,10.7352876392
1520439647262024587,-0.1727617386,-0.0683152483,0.1404597978,0.3163826074,-0.6607463338,10.8046124345
1520439647267039587,-0.1979170924,-0.0860951794,0.1387475865,0.3644853160,-0.6391655525,10.8552575181
1520439647272056587,-0.2233262541,-0.1062084705,0.1378296950,0.3849289671,-0.5312445067,10.9118983454
1520439647277072587,-0.2494867210,-0.1260379568,0.1396208857,0.4354368110,-0.4437111895,10.9334021064
1520439647282086587,-0.2774116427,-0.1481919241,0.1386920998,0.4450573527,-0.3537764070,10.9890036753
1520439647287103587,-0.3028150023,-0.1659828802,0.1410385437,0.4558804621,-0.2902228075,11.0074306580
1520439647292119587,-0.3272133821,-0.1823092355,0.1406887772,0.3680930191,-0.1774967705,10.9884187621
1520439647297134587,-0.3485914166,-0.1922108379,0.1355124917,0.3031543626,-0.1547080448,10.9541642990
1520439647302150587,-0.3666848774,-0.1881203326,0.1288135716,0.2442285447,-0.1726905618,10.9582418187
1520439647307166587,-0.3774846346,-0.1758514513,0.1159408073,0.1973284039,-0.1439075389,10.9586702518
1520439647312181587,-0.3850153430,-0.1589052975,0.0979571729,0.1023255545,-0.2002597397,10.9828927893
1520439647317197587,-0.3827430644,-0.1399141554,0.0794298061,0.0470074397,-0.2218399590,10.9892629898
1520439647322214587,-0.3741763853,-0.1095449004,0.0566487372,-0.0419825710,-0.3045737173,11.0111284395
1520439647327229587,-0.3603350691,-0.0806283152,0.0330351141,-0.1069212275,-0.3921059106,11.0385751853
1520439647332245587,-0.3422243152,-0.0546282722,0.0110146011,-0.0732493316,-0.4388750096,10.9836722821
1520439647337261587,-0.3183360680,-0.0318377503,-0.0086061873,-0.0840724410,-0.5012294687,11.0105677442
1520439647342277587,-0.2904328104,-0.0160512651,-0.0236885172,-0.0888827118,-0.5180170600,10.9676316088
1520439647347291587,-0.2585166006,-0.0052130995,-0.0401688365,-0.0864775764,-0.5072249835,10.8885718858
1520439647352308587,-0.2308725767,-0.0011083173,-0.0455999708,-0.0263491907,-0.4940391218,10.8135965572
1520439647357324587,-0.2007181678,-0.0016770864,-0.0464720615,0.0915024451,-0.5336199345,10.7450837005
1520439647362340587,-0.1723438876,-0.0203240403,-0.0431499820,0.1612513725,-0.4880580307,10.7373875086
1520439647367355587,-0.1454757382,-0.0413186866,-0.0338908772,0.2213797581,-0.4472919393,10.6437909819
1520439647372371587,-0.1221231849,-0.0634940896,-0.0194937585,0.2105566487,-0.3897323560,10.6403537673
1520439647377387587,-0.0982730992,-0.0915064558,-0.0016249384,0.2923312532,-0.3453705292,10.6232445425
1520439647382402587,-0.0749197188,-0.1163188882,0.0181630904,0.3356236908,-0.3117979691,10.5658453652
1520439647387418587,-0.0510622470,-0.1408433813,0.0393051383,0.4222085662,-0.2386571468,10.5440126803
1520439647392434587,-0.0294546329,-0.1577978617,0.0624030082,0.4691087070,-0.1307381614,10.4725601614
1520439647397449587,-0.0045725676,-0.1695075977,0.0860759180,0.5364524989,-0.0767820873,10.4625549063
1520439647402466587,0.0200655066,-0.1742169191,0.1070971896,0.5629089886,-0.0084331437,10.4494471592
1520439647407481587,0.0454657022,-0.1736846658,0.1295098061,0.5917706137,0.0635130338,10.4293396303
1520439647412497587,0.0706204992,-0.1670254232,0.1489935692,0.5472756083,0.1306683630,10.4552744014
1520439647417512587,0.0977889958,-0.1545224053,0.1628365965,0.4799318164,0.1942280504,10.4907322282
1520439647422529587,0.1216902626,-0.1396779362,0.1723747415,0.4811343841,0.2002236588,10.4686339413
1520439647427544587,0.1433365321,-0.1181244963,0.1789922131,0.4570830299,0.2206109192,10.4955774746
1520439647432560587,0.1642332175,-0.0930732807,0.1850966701,0.5003754675,0.1966247390,10.4405587135
1520439647437576587,0.1818658331,-0.0662764946,0.1917616248,0.4979703321,0.1078885350,10.3686157296
1520439647442592587,0.1937194145,-0.0377285669,0.1965568314,0.4606907330,0.0839086300,10.3585426775
1520439647447607587,0.2058296618,-0.0053932702,0.2016510173,0.4198034308,0.0515350230,10.2973785920
1520439647452624587,0.2154237179,0.0278297641,0.2013456218,0.3680930191,0.0155648377,10.2525933754
1520439647457639587,0.2192383792,0.0592927571,0.2045547190,0.3187877429,0.0023781331,10.1775467884
1520439647462655587,0.2207907355,0.0904642079,0.2074952477,0.2694824666,-0.0503802055,10.0816201985
1520439647467670587,0.2208205189,0.1117323647,0.2087397165,0.2105566487,-0.1223240416,10.0044002617
1520439647472687587,0.2180839923,0.1318353572,0.2094393352,0.1588462370,-0.1666882099,10.0072711325
1520439647477702587,0.2135908319,0.1516368064,0.2136570944,0.1059332577,-0.2086540037,9.9578548919
1520439647482718587,0.2070709289,0.1647596621,0.2088994419,-0.0107158105,-0.2482165526,9.9241645519
1520439647487734587,0.2033216875,0.1807894332,0.2071348912,-0.0516031127,-0.2757935979,9.8746172286
1520439647492749587,0.1993178934,0.1950737125,0.2042752851,-0.1466059620,-0.2637947945,9.8650709391
1520439647497765587,0.1978217676,0.2067423431,0.1992266368,-0.1502136652,-0.2829807603,9.8558276120
1520439647502781587,0.1963263867,0.2178231056,0.1960673637,-0.1333777172,-0.2985708971,9.7813017296
1520439647507797587,0.1933129649,0.2224979167,0.1909681617,-0.2103420508,-0.3033614645,9.8052984096
1520439647512813587,0.1915542338,0.2260084105,0.1855871879,-0.2283805665,-0.3045592001,9.8054751548
1520439647517828587,0.1925560105,0.2283617335,0.1774867288,-0.3173705773,-0.3429247628,9.8226487632
1520439647522845587,0.1885238954,0.2263488753,0.1669273448,-0.3690809889,-0.3513147184,9.8266466979
1520439647527860587,0.1870029181,0.2220015549,0.1579687843,-0.3955374786,-0.3129401643,9.8315153661
1520439647532876587,0.1827165991,0.2173639522,0.1482014970,-0.3811066661,-0.3009498840,9.8604168109
1520439647537892587,0.1799333647,0.2089374846,0.1389436010,-0.3714861244,-0.2889592290,9.9056350912
1520439647542908587,0.1733755003,0.1967215412,0.1296638058,-0.3955374786,-0.2637754069,9.8953853407
1520439647547923587,0.1637993645,0.1818790420,0.1214517870,-0.4520581611,-0.1870260178,9.9493192625
1520439647552939587,0.1532081382,0.1612150142,0.1107622604,-0.4773120831,-0.2050111573,9.9402854571
1520439647557954587,0.1416067064,0.1388110266,0.0968147114,-0.4749069477,-0.1594440085,9.8600296793
1520439647562972587,0.1284934749,0.1123219659,0.0847326608,-0.4869326248,-0.1378585443,9.8159642115
1520439647567985587,0.1148809859,0.0869924190,0.0748248032,-0.4580709997,-0.1834281282,9.8331598843
1520439647573002587,0.0984987604,0.0599236799,0.0611210985,-0.5230096562,-0.1546437004,9.7965752867
1520439647578017587,0.0818594418,0.0334594643,0.0393059298,-0.5362379010,-0.1618375127,9.7374417167
1520439647583034587,0.0639701801,0.0101927020,0.0202230076,-0.5049711405,-0.1402554203,9.7580349283
1520439647588050587,0.0450733551,-0.0118958044,-0.0037189815,-0.4676915414,-0.1534488684,9.6565784103
1520439647593065587,0.0289511946,-0.0284563912,-0.0241067692,-0.4111708589,-0.2074145894,9.6142437105
1520439647598080587,0.0088055712,-0.0461804494,-0.0458487112,-0.3510424732,-0.2002244299,9.6322457449
1520439647603096587,-0.0093236398,-0.0615821132,-0.0640595057,-0.2704704365,-0.1846418796,9.6023927059
1520439647608113587,-0.0241844292,-0.0769875962,-0.0803825463,-0.2295831342,-0.2446020852,9.5613781625
1520439647613129587,-0.0395428883,-0.0886045488,-0.0969462993,-0.2247728634,-0.2865723747,9.5148865110
1520439647618143587,-0.0523920992,-0.1031350905,-0.1132664044,-0.2139497540,-0.2745818134,9.4950130249
1520439647623160587,-0.0614658922,-0.1147568660,-0.1271363665,-0.2668627333,-0.2302094967,9.4001889776
1520439647628174587,-0.0682751338,-0.1234602680,-0.1423410277,-0.2656601656,-0.2062267819,9.3908567341
1520439647633192587,-0.0735754376,-0.1309960843,-0.1580806886,-0.2488242176,-0.1714530208,9.3743889371
1520439647638207587,-0.0756060850,-0.1364909289,-0.1738108554,-0.2812935459,-0.0851123815,9.3967015163
1520439647643223587,-0.0793901552,-0.1402490821,-0.1854662282,-0.2680653011,-0.0695245863,9.4535026131
1520439647648238587,-0.0771466133,-0.1451638545,-0.1995766078,-0.2440139468,-0.0395479489,9.4753200136
1520439647653253587,-0.0759059850,-0.1506719879,-0.2099019241,-0.2019240768,-0.0347546653,9.5457964405
1520439647658270587,-0.0749099673,-0.1509338413,-0.2207278499,-0.1826829934,-0.0383535851,9.5583962511
1520439647663285587,-0.0751654766,-0.1491637797,-0.2288304215,-0.1429982589,-0.0551446418,9.6056742571
1520439647668301587,-0.0746681009,-0.1479754633,-0.2372093854,-0.1237571755,-0.0767306680,9.6403723429
1520439647673318587,-0.0741661109,-0.1453389655,-0.2423306831,-0.0708441961,-0.1019167380,9.6631247556
1520439647678333587,-0.0766776878,-0.1430030464,-0.2444725983,-0.0010952688,-0.0971256085,9.6566304652
1520439647683349587,-0.0761681393,-0.1380500409,-0.2441651934,0.0878947420,-0.1247127691,9.6650883375
1520439647688366587,-0.0771608011,-0.1307745627,-0.2408611987,0.1035281222,-0.1319088292,9.6370517329
1520439647693381587,-0.0809214038,-0.1270004240,-0.2362260175,0.1432128568,-0.1307127796,9.6099349858
1520439647698395587,-0.0834222153,-0.1217732410,-0.2299587791,0.1540359662,-0.1498998693,9.6017133420
1520439647703411587,-0.0849191958,-0.1177119307,-0.2234317541,0.1203640702,-0.1043299107,9.6101316564
1520439647708428587,-0.0881740332,-0.1116065189,-0.2187797216,0.1155537994,-0.0491690766,9.6310432782
1520439647713443587,-0.0889116560,-0.1014163685,-0.2157245086,0.1131486640,0.0419657829,9.6693285690
1520439647718459587,-0.0921619653,-0.0932770925,-0.2088925474,0.1672642110,0.0923254660,9.7198870632
1520439647723475587,-0.0918885946,-0.0822276918,-0.2001510683,0.2081515133,0.1582750048,9.7508026644
1520439647728490587,-0.0933726887,-0.0703062835,-0.1908585610,0.2442285447,0.2134326545,9.7259927000
1520439647733508587,-0.0923404543,-0.0572241801,-0.1793974614,0.2791030083,0.2673912574,9.7802213990
1520439647738522587,-0.0933155762,-0.0423967424,-0.1671076518,0.2586593572,0.2937739389,9.7989889627
1520439647743538587,-0.0937928911,-0.0293094023,-0.1578081191,0.3007492272,0.2649912907,9.8102287895
1520439647748553587,-0.0897428715,-0.0147699231,-0.1460709589,0.3272057169,0.2661883706,9.8227536924
1520439647753570587,-0.0887063756,-0.0008238642,-0.1308155475,0.3729032900,0.2338080201,9.8327997680
1520439647758585587,-0.0864124604,0.0142904105,-0.1163652151,0.4546778944,0.1534592428,9.8599736248
1520439647763601587,-0.0798431720,0.0293954325,-0.0978646285,0.4979703321,0.1018928329,9.8166031980
1520439647768618587,-0.0740329276,0.0407121602,-0.0793915419,0.5220216864,0.0611201853,9.7815445358
1520439647773633587,-0.0694767153,0.0531910200,-0.0598250458,0.4931600612,0.0299447821,9.7876665797
1520439647778649587,-0.0636643146,0.0662567834,-0.0416091665,0.4270188370,0.0143611079,9.8185413021
1520439647783664587,-0.0591062989,0.0799004529,-0.0217632321,0.3741058577,0.0203609310,9.8085911823
1520439647788681587,-0.0568138382,0.0929706653,-0.0057051860,0.3151800397,0.0335560650,9.8196111629
1520439647793696587,-0.0547778630,0.1040091003,0.0073617605,0.2574567895,0.0035820501,9.7865000644
1520439647798711587,-0.0550056041,0.1124190894,0.0223067210,0.2646721958,-0.0072107756,9.7434410318
1520439647803727587,-0.0534809377,0.1170468679,0.0353256930,0.2273925967,-0.0575717700,9.7485015766
1520439647808743587,-0.0509543260,0.1213931252,0.0448234784,0.1384025859,-0.0671579625,9.7458906737
1520439647813758587,-0.0517019930,0.1193232725,0.0559016987,0.1143512317,-0.1199182679,9.7008526115
1520439647818775587,-0.0532078141,0.1178526474,0.0607632098,0.1263769088,-0.1678848215,9.6566208642
1520439647823791587,-0.0562273283,0.1102543437,0.0685568412,0.1107435285,-0.2074552379,9.5742993974
1520439647828806587,-0.0549777459,0.1035457075,0.0712088356,0.0385894657,-0.2530169544,9.5204253698
1520439647833822587,-0.0547395569,0.0942229580,0.0705961383,0.0037150021,-0.3093738381,9.4824690249
1520439647838838587,-0.0560152258,0.0828708525,0.0659124914,0.0241586532,-0.3741290132,9.4521174405
1520439647843853587,-0.0517655312,0.0694826782,0.0606619231,-0.0179312168,-0.3957102627,9.4037381195
1520439647848869587,-0.0515402208,0.0552267877,0.0524361484,-0.0768570347,-0.4040996564,9.3311047835
1520439647853885587,-0.0465433533,0.0398123288,0.0422987922,-0.0985032535,-0.4076953917,9.3034275276
1520439647858901587,-0.0415462622,0.0258606200,0.0300081844,-0.1105289307,-0.4196858594,9.2652055211
1520439647863917587,-0.0370524706,0.0122037410,0.0163680035,-0.1309725818,-0.4352730927,9.1980153591
1520439647868932587,-0.0280345944,-0.0002829140,0.0016461304,-0.1911009674,-0.4244761459,9.1474557539
1520439647873949587,-0.0202763290,-0.0124670219,-0.0173999203,-0.2139497540,-0.4580502982,9.1128465729
1520439647878965587,-0.0120088680,-0.0202823502,-0.0356019205,-0.2632550302,-0.4652413007,9.1261170797
1520439647883980587,0.0005334018,-0.0257634717,-0.0543351621,-0.3402193638,-0.4952138170,9.1350304445
1520439647888996587,0.0130826696,-0.0251211475,-0.0746449943,-0.3582578795,-0.5167969397,9.1387135003
1520439647894012587,0.0261360757,-0.0230202469,-0.0954857363,-0.3378142284,-0.5072054086,9.1315322959
1520439647899026587,0.0386906124,-0.0223954051,-0.1093024669,-0.3378142284,-0.5491753234,9.1710861172
1520439647904043587,0.0530087220,-0.0209066470,-0.1190576070,-0.3486373378,-0.5563693230,9.1607391832
1520439647909058587,0.0648121732,-0.0199987288,-0.1298947096,-0.3305988221,-0.5911458002,9.1908132610
1520439647914075587,0.0791293536,-0.0211411726,-0.1364233066,-0.3582578795,-0.6319144204,9.2445808567
1520439647919090587,0.0909344670,-0.0225803560,-0.1413261842,-0.3931323432,-0.7062584105,9.2322092189
1520439647924106587,0.1012360057,-0.0228633333,-0.1429708183,-0.4087657235,-0.7302400014,9.2556276505
1520439647929122587,0.1117835116,-0.0301532810,-0.1395289012,-0.4376273486,-0.7434282982,9.2803264576
1520439647934138587,0.1200698101,-0.0377384130,-0.1350028230,-0.4965531665,-0.7758005003,9.2739587138
1520439647939153587,0.1283626166,-0.0418327581,-0.1282857007,-0.5602892553,-0.7721981150,9.2745755738
1520439647944169587,0.1371525242,-0.0488356526,-0.1234855639,-0.6035816930,-0.7649999007,9.3365835693
1520439647949184587,0.1451898566,-0.0543797345,-0.1194845492,-0.5975688544,-0.7590046669,9.3504649248
1520439647954200587,0.1459363513,-0.0637212263,-0.1130639866,-0.5759226356,-0.7566080720,9.4350884038
1520439647959216587,0.1489430379,-0.0748130530,-0.1055787795,-0.5843406096,-0.7218323441,9.4723250349
1520439647964231587,0.1509432550,-0.0861937442,-0.0991761121,-0.5903534481,-0.6954507864,9.5293028884
1520439647969247587,0.1514363417,-0.0961137330,-0.0943828043,-0.5530738490,-0.6498863538,9.5870027945
1520439647974265587,0.1514336013,-0.1028367016,-0.0865881043,-0.5350353333,-0.6007230013,9.7006693833
1520439647979280587,0.1499276823,-0.1081120795,-0.0755329378,-0.4905403280,-0.5395703052,9.7199331071
1520439647984295587,0.1486726269,-0.1119224236,-0.0674431274,-0.4304119423,-0.4928085117,9.7378965533
1520439647989311587,0.1471662687,-0.1171963446,-0.0569290526,-0.3991451818,-0.4532393128,9.7817151039
1520439647994328587,0.1441476287,-0.1262610405,-0.0456294400,-0.3738912598,-0.4292584712,9.8197966614
1520439647999342587,0.1421354582,-0.1350368718,-0.0332472875,-0.3606630150,-0.4028784122,9.8777493781
1520439648004358587,0.1378639269,-0.1432359192,-0.0189626671,-0.3281936867,-0.3477204815,9.9017845750
1520439648009375587,0.1328322538,-0.1552196186,-0.0060582762,-0.3606630150,-0.3009514762,9.9264600303
1520439648014389587,0.1273029974,-0.1640004704,0.0076831399,-0.3257885513,-0.2997550519,9.9319301341
1520439648019405587,0.1215253001,-0.1713274118,0.0225183217,-0.2921166553,-0.2661817425,9.9176239236
1520439648024421587,0.1127333772,-0.1789527466,0.0395212482,-0.3342065253,-0.2937586942,9.8983040481
1520439648029438587,0.1064575240,-0.1836603379,0.0554595548,-0.3618655827,-0.2601806081,9.9345669855
