#timestamp [ns],w_RS_S_x [rad s^-1],w_RS_S_y [rad s^-1],w_RS_S_z [rad s^-1],a_RS_S_x [m s^-2],a_RS_S_y [m s^-2],a_RS_S_z [m s^-2]
1520617230083606654,0.0536259187,-0.2507621620,0.4029754151,-0.5879483127,0.1187653737,9.7957786065
1520617230088623654,0.0692086690,-0.2405189925,0.3886853538,-0.5711123647,0.0144388457,9.7875814605
1520617230093637654,0.0827841063,-0.2288233301,0.3757628712,-0.5482635782,-0.0910872911,9.7456247839
1520617230098654654,0.0928337112,-0.2203233494,0.3587642803,-0.4929454634,-0.2074082206,9.7149840344
1520617230103668654,0.1008711613,-0.2147452860,0.3444526513,-0.4063605880,-0.2661728448,9.6793342494
1520617230108684654,0.1106580746,-0.2138177593,0.3260439974,-0.4063605880,-0.2949522150,9.6549572905
1520617230113700654,0.1222060596,-0.2114326209,0.3076431919,-0.3630681504,-0.2793667612,9.6243049642
1520617230118715654,0.1330044096,-0.2081838222,0.2930380983,-0.4075631558,-0.2697701724,9.6282151285
1520617230123730654,0.1412890695,-0.2046409814,0.2770871656,-0.4147785620,-0.2745661722,9.6712893625
1520617230128745654,0.1445488976,-0.1999331147,0.2606133679,-0.4520581611,-0.2637710049,9.7251003170
1520617230133762654,0.1493181888,-0.1946448020,0.2452233997,-0.5422507396,-0.2421794528,9.7921993536
1520617230138776654,0.1528248779,-0.1910929054,0.2252231463,-0.5626943907,-0.2601649669,9.8168209026
1520617230143792654,0.1530657367,-0.1872530895,0.2060428210,-0.6252279118,-0.2685540796,9.8476534938
1520617230148808654,0.1515481585,-0.1848796266,0.1901011982,-0.6925717037,-0.2961290643,9.9285238046
1520617230153823654,0.1487656415,-0.1877472069,0.1724986181,-0.6697229172,-0.3105205290,9.9341261603
1520617230158839654,0.1477475363,-0.1879974646,0.1570771458,-0.7190281934,-0.3273046548,9.9636760373
1520617230163854654,0.1429586275,-0.1897083072,0.1424631967,-0.6901665683,-0.3524888516,9.9843382632
1520617230168870654,0.1399259918,-0.1946287893,0.1297153478,-0.6637100786,-0.3752745801,9.9887515452
1520617230173884654,0.1361398986,-0.1995510237,0.1175099909,-0.6733306203,-0.3812695330,10.0179046312
1520617230178900654,0.1336189676,-0.1977694649,0.1048123395,-0.5855431773,-0.3644884042,9.9252244190
1520617230183915654,0.1326045986,-0.1965686275,0.0915663498,-0.5687072293,-0.3620914346,9.8715995876
1520617230188931654,0.1333479179,-0.1947770475,0.0756160803,-0.5218070885,-0.3057354874,9.7595223119
1520617230193947654,0.1353540588,-0.1912497799,0.0645466418,-0.4075631558,-0.2337959597,9.6676929427
1520617230198963654,0.1401327629,-0.1798460342,0.0505560878,-0.3269911190,-0.2038237244,9.5099900366
1520617230203977654,0.1414016456,-0.1611539548,0.0347338238,-0.2861038167,-0.0935059899,9.4362694164
1520617230208993654,0.1459411924,-0.1413023416,0.0216198437,-0.2139497540,0.0228050116,9.3331850191
1520617230214009654,0.1469653194,-0.1223393721,0.0133755546,-0.0876801441,0.1067350070,9.2168218830
1520617230219024654,0.1520134856,-0.1001659554,0.0037955224,0.0085252729,0.1606888332,9.1228613419
1520617230224039654,0.1595776706,-0.0777089108,-0.0025404033,0.0999204191,0.2218378767,9.0405620445
1520617230229054654,0.1648903159,-0.0526521445,-0.0007357438,0.3344211231,0.4652451189,9.0868522287
1520617230234070654,0.1656760461,-0.0363663666,0.0112913683,0.3404339617,0.5012188633,9.1134879342
1520617230239086654,0.1646978938,-0.0218215722,0.0203324040,0.3729032900,0.4820300877,9.1527035015
1520617230244101654,0.1624735894,0.0014693646,0.0275486446,0.4077777536,0.4232694908,9.2116906942
1520617230249117654,0.1584797688,0.0180621388,0.0330937460,0.5184139832,0.4808196144,9.1756933821
1520617230254131654,0.1542479317,0.0428062969,0.0414070194,0.4534753267,0.4988117784,9.1263357250
1520617230259148654,0.1457416858,0.0669711113,0.0478299597,0.4041700505,0.4940190568,9.1151988701
1520617230264162654,0.1354874351,0.0992940032,0.0543184134,0.4354368110,0.5060080259,9.1799629067
1520617230269178654,0.1297661878,0.1348064148,0.0673160216,0.4655010038,0.5611661439,9.2574801356
1520617230274192654,0.1212695116,0.1580613825,0.0869890415,0.4811343841,0.5839485943,9.2782243436
1520617230279209654,0.1127716436,0.1789787180,0.1090791898,0.4847420873,0.6091302622,9.3351097261
1520617230284224654,0.1005034581,0.1996046491,0.1306330241,0.4342342433,0.5623677194,9.4541856260
1520617230289241654,0.0874740763,0.2161567289,0.1499927681,0.4029674828,0.4820277462,9.4475954395
1520617230294255654,0.0716788353,0.2359326231,0.1620773609,0.3452442326,0.5383918418,9.6619368108
1520617230299271654,0.0515889365,0.2361709684,0.1788907674,0.2610644926,0.5288052746,9.8347628247
1520617230304285654,0.0289835012,0.2358313876,0.1935400278,0.1648590756,0.3801193549,9.9369507513
1520617230309302654,0.0028552288,0.2357985669,0.2019754898,0.1035281222,0.2961843019,10.1317076033
1520617230314317654,-0.0268053878,0.2276157990,0.2065675970,0.0638433877,0.2122475631,10.2449036875
1520617230319333654,-0.0579825476,0.2147783007,0.2081509303,-0.0347671647,0.1582939241,10.2633482817
1520617230324347654,-0.0924341979,0.1984523778,0.2061965573,-0.1165417692,0.1295209228,10.3071716160
1520617230329364654,-0.1213494879,0.1873713571,0.2050835697,-0.2464190822,0.0587817531,10.2294789642
1520617230334380654,-0.1512773123,0.1739727066,0.1988142922,-0.3245859836,0.0503938581,10.2895173199
1520617230339394654,-0.1769298889,0.1629068060,0.1925548651,-0.4003477495,0.0312135119,10.3146784709
1520617230344410654,-0.2023250861,0.1597236831,0.1806735308,-0.4749069477,0.0288210379,10.2991365077
1520617230349424654,-0.2237036811,0.1536290187,0.1684919522,-0.4881351925,0.0659954213,10.2910940061
1520617230354440654,-0.2428212924,0.1463667886,0.1573794643,-0.5121865468,0.0707938562,10.2227569366
1520617230359456654,-0.2579183028,0.1373505423,0.1489516293,-0.5374404688,0.0947786316,10.2020607648
1520617230364472654,-0.2727639202,0.1306756687,0.1367534697,-0.5470610105,0.1295544531,10.1800397593
1520617230369488654,-0.2800704434,0.1231252246,0.1261579145,-0.5614918230,0.1187633132,10.1732178803
1520617230374502654,-0.2871289256,0.1123660070,0.1168901681,-0.5578841199,0.1211613131,10.2882326780
1520617230379518654,-0.2969578971,0.0975285083,0.1067847948,-0.5242122239,0.1115655672,10.2972114427
1520617230384532654,-0.3037832006,0.0757069751,0.0936444620,-0.5097814114,0.0947764774,10.3726267098
1520617230389549654,-0.3068426756,0.0503866623,0.0818231807,-0.5169968176,0.0803873543,10.3913052755
1520617230394564654,-0.3076432720,0.0247838638,0.0670194710,-0.4508555934,0.0468062711,10.3651270719
1520617230399580654,-0.3071882524,-0.0008155287,0.0511312441,-0.3570553118,-0.0011666513,10.2759379105
1520617230404594654,-0.3047211250,-0.0246636411,0.0344409842,-0.3077500356,-0.0095644743,10.2568718853
1520617230409611654,-0.2926986165,-0.0447229270,0.0188440725,-0.2836986813,0.0360009886,10.1473518176
1520617230414626654,-0.2791599998,-0.0586625471,0.0032910453,-0.2909140876,0.0875645887,10.0625352577
1520617230419642654,-0.2651213807,-0.0743495491,-0.0125467998,-0.2800909782,0.1571138903,9.9775255819
1520617230424655654,-0.2455433200,-0.0818748898,-0.0286032123,-0.2909140876,0.2014829289,9.8276710917
1520617230429671654,-0.2231919553,-0.0835750992,-0.0432675675,-0.3185731450,0.2614421043,9.7070188698
1520617230434688654,-0.1975713770,-0.0846963586,-0.0560397227,-0.3450296347,0.3034140796,9.6549389763
1520617230439703654,-0.1704373330,-0.0826161680,-0.0671669490,-0.3402193638,0.3118076880,9.6130467883
1520617230444718654,-0.1405397114,-0.0831668248,-0.0748022203,-0.3859169369,0.2842310173,9.5658705731
1520617230449735654,-0.1093830475,-0.0831400477,-0.0802710119,-0.3642707181,0.2950215952,9.5947029569
1520617230454748654,-0.0812398211,-0.0842923735,-0.0811438150,-0.3330039576,0.3070105643,9.6280891067
1520617230459765654,-0.0518460831,-0.0895221335,-0.0825911666,-0.2680653011,0.3046072258,9.6414050998
1520617230464780654,-0.0221970475,-0.0935942697,-0.0810540878,-0.1766701549,0.3513665842,9.6218756080
1520617230469796654,0.0066899960,-0.1037865048,-0.0792917476,-0.0924904150,0.3825376790,9.6756466171
1520617230474811654,0.0328158220,-0.1154534995,-0.0713128334,-0.0155260813,0.4257007400,9.7410976027
1520617230479827654,0.0586838413,-0.1306113794,-0.0655244966,0.0193483823,0.4185031813,9.8395474082
1520617230484842654,0.0848021911,-0.1466440430,-0.0594727499,0.0433997366,0.3837262358,9.8405093618
1520617230489856654,0.1063979147,-0.1603393898,-0.0563708224,0.1287820442,0.3657324796,9.8815330253
1520617230494873654,0.1292478468,-0.1749047557,-0.0546306272,0.0975152837,0.3753280382,9.9341244800
1520617230499888654,0.1485778861,-0.1882950354,-0.0569331940,0.0614382523,0.3141746864,9.9159409647
1520617230504903654,0.1654034757,-0.1941044745,-0.0613376605,-0.0648313576,0.2638206229,9.8660847739
1520617230509920654,0.1802241398,-0.1923226781,-0.0716326027,-0.2969269262,0.1511194995,9.8091844260
1520617230514935654,0.1932911733,-0.1844130262,-0.0853946897,-0.4556658643,0.0252221181,9.7748258115
1520617230519950654,0.2071088571,-0.1753215153,-0.1051012942,-0.5506687136,-0.0575111720,9.7316697251
1520617230524965654,0.2199161550,-0.1697255558,-0.1253738007,-0.5590866876,-0.1174675375,9.6783515056
1520617230529981654,0.2299544927,-0.1711399333,-0.1397425175,-0.4881351925,-0.1438541528,9.6544437536
1520617230534997654,0.2420038717,-0.1754826656,-0.1484557352,-0.4268042392,-0.1978202485,9.7666273796
1520617230540013654,0.2497768973,-0.1850814627,-0.1536839374,-0.2897115199,-0.1486661684,9.8163793942
1520617230545028654,0.2542897107,-0.1952890754,-0.1497119580,-0.2283805665,-0.0275577622,9.8935279780
1520617230550043654,0.2570419347,-0.2072485982,-0.1446678664,-0.1682521809,0.0419876993,10.0032785791
1520617230555057654,0.2580368663,-0.2195074790,-0.1369172719,-0.1105289307,0.1367152971,10.0886230112
1520617230560074654,0.2547647713,-0.2303213090,-0.1253599852,0.0061201375,0.2254426034,10.1083196808
1520617230565089654,0.2512447136,-0.2414390053,-0.1092051745,0.1251743411,0.3321568287,10.0524360432
1520617230570104654,0.2497405509,-0.2467202106,-0.0959856408,0.1636565079,0.4280850655,10.0473193585
1520617230575120654,0.2417139211,-0.2453094160,-0.0799973824,0.2442285447,0.5192134625,10.0069333554
1520617230580135654,0.2294184652,-0.2421549017,-0.0629056676,0.3091672012,0.6019490940,10.0329499089
1520617230585150654,0.2208936365,-0.2378319155,-0.0463531531,0.3957520765,0.6559036696,10.0378652444
1520617230590167654,0.2078475420,-0.2314688246,-0.0305883136,0.3656878837,0.7050707684,9.9602462829
1520617230595182654,0.1917962428,-0.2181166003,-0.0136823359,0.3717007222,0.7218582661,9.8741727343
1520617230600196654,0.1757465745,-0.2024282006,0.0013476053,0.4077777536,0.7362451413,9.7517824353
1520617230605211654,0.1574424303,-0.1820814484,0.0174994999,0.4642984361,0.7806089350,9.6477582202
1520617230610229654,0.1396445336,-0.1596977213,0.0347482063,0.5268319572,0.7050582180,9.6693039608
1520617230615243654,0.1175684881,-0.1408079117,0.0503548946,0.5172114155,0.6379071036,9.6915438194
1520617230620258654,0.0952327933,-0.1248174772,0.0605289008,0.4161957276,0.5743605286,9.7692905201
1520617230625275654,0.0723864090,-0.1134835646,0.0685039039,0.3777135608,0.5287961896,9.8231681387
1520617230630289654,0.0477759188,-0.1053533857,0.0756460825,0.3560673420,0.5000185053,9.8315419015
1520617230635305654,0.0231625314,-0.0969208958,0.0787322957,0.2887235500,0.4316727461,9.8462097644
1520617230640320654,-0.0022040938,-0.0884908865,0.0826315467,0.2045438101,0.3525360344,9.8994027727
1520617230645337654,-0.0248011512,-0.0756868411,0.0857473725,0.1540359662,0.2937820874,9.9394645772
1520617230650351654,-0.0489081498,-0.0617054649,0.0842756106,0.1095409608,0.3129717996,9.9584732581
1520617230655366654,-0.0740229391,-0.0494720613,0.0825218312,0.0734639294,0.2518184478,9.9170468637
1520617230660383654,-0.0976341969,-0.0381020225,0.0769709397,0.1359974505,0.2158393647,9.8630146591
1520617230665398654,-0.1202356451,-0.0252834084,0.0746758475,0.1961258361,0.1738647669,9.7799581124
1520617230670412654,-0.1368071485,-0.0115802651,0.0694002184,0.2502413832,0.1630682884,9.7120375595
1520617230675429654,-0.1523687481,0.0059127278,0.0636105306,0.2947363886,0.1822510698,9.6720728686
1520617230680445654,-0.1684352741,0.0228278537,0.0559235089,0.2983440917,0.1966404739,9.7231580553
1520617230685460654,-0.1804876168,0.0353759723,0.0473840356,0.3043569303,0.2649910097,9.8764358797
1520617230690475654,-0.1922883981,0.0476306196,0.0396535102,0.3909418056,0.3177464448,9.8151101791
1520617230695490654,-0.2018271018,0.0572505804,0.0367686026,0.3260031491,0.4160810172,9.7226748500
1520617230700505654,-0.2098447302,0.0750226144,0.0366486001,0.2418234092,0.4448669435,9.6676832300
1520617230705520654,-0.2161123739,0.0860934935,0.0364741995,0.1925181330,0.4688535921,9.7611112668
1520617230710537654,-0.2198740704,0.0913347529,0.0373328536,0.1853027267,0.4484687668,9.8646321879
1520617230715552654,-0.2213829219,0.0895814844,0.0389455908,0.1684667787,0.4220889887,9.8764432237
1520617230720567654,-0.2233944181,0.0866573819,0.0424441904,0.1636565079,0.3777211677,9.8916411808
1520617230725584654,-0.2236498530,0.0834513252,0.0426907490,0.1480231276,0.4172940193,9.8952411902
1520617230730599654,-0.2226466806,0.0822876378,0.0421388980,0.2177720550,0.3645264084,9.8841544523
1520617230735614654,-0.2211420985,0.0802499937,0.0415794443,0.2791030083,0.3225517169,9.8557069664
1520617230740629654,-0.2163739717,0.0770539188,0.0388406636,0.2959389563,0.3273469673,9.7462968866
1520617230745645654,-0.2100880667,0.0805573651,0.0372323972,0.3500545034,0.3561221228,9.5865283731
1520617230750660654,-0.2020325122,0.0913439285,0.0364880785,0.3428390971,0.3201484721,9.4506628410
1520617230755675654,-0.1907131896,0.1024348112,0.0314111812,0.2273925967,0.2482090380,9.3658580342
1520617230760691654,-0.1808985315,0.1176124994,0.0233922026,0.1155537994,0.1223080039,9.3229079148
1520617230765707654,-0.1678113903,0.1409684449,0.0086657555,-0.0203363522,-0.0083877186,9.2662508464
1520617230770721654,-0.1564898408,0.1637598715,-0.0130960640,-0.2103420508,-0.1474732095,9.2531280173
1520617230775738654,-0.1456750604,0.1865649413,-0.0399973220,-0.3245859836,-0.2613826520,9.3415118814
1520617230780753654,-0.1351135938,0.2111327885,-0.0722956927,-0.4111708589,-0.4040736189,9.3483045167
1520617230785769654,-0.1255630894,0.2301581083,-0.1024700680,-0.4448427549,-0.5047987920,9.3894055211
1520617230790784654,-0.1167727739,0.2442281390,-0.1321397438,-0.3811066661,-0.5036046155,9.4573504771
1520617230795799654,-0.1082476158,0.2480996128,-0.1618867608,-0.2861038167,-0.4676378020,9.5586593654
1520617230800815654,-0.1060055126,0.2469946921,-0.1840846171,-0.1490110975,-0.4160854410,9.6827862545
1520617230805829654,-0.1032610470,0.2400367827,-0.1968587622,-0.0179312168,-0.3309566799,9.6895623879
1520617230810846654,-0.0992660346,0.2257816407,-0.2048209920,0.0999204191,-0.2326363438,9.6976165582
1520617230815861654,-0.0987875397,0.2106414971,-0.2092662602,0.2189746227,-0.1235238376,9.7381885301
1520617230820876654,-0.0970478578,0.1934373874,-0.2045308631,0.3175851752,-0.0048166158,9.7359508069
1520617230825892654,-0.0930378303,0.1785470292,-0.1930182345,0.3668904514,0.0731236716,9.7435299002
1520617230830908654,-0.0897766420,0.1665665788,-0.1801292454,0.3717007222,0.1354785990,9.7283144030
1520617230835923654,-0.0862642019,0.1534155898,-0.1653557941,0.4005623473,0.1198875257,9.7722101533
1520617230840938654,-0.0787290869,0.1423087814,-0.1516564324,0.3717007222,0.1246863352,9.7934049885
1520617230845954654,-0.0737086734,0.1309139746,-0.1395779019,0.3452442326,0.1678574510,9.7819989639
1520617230850970654,-0.0676754983,0.1247630262,-0.1269201309,0.3187877429,0.2482019199,9.7786916976
1520617230855984654,-0.0649011122,0.1247306014,-0.1144801536,0.2045438101,0.2781893281,9.7751258687
1520617230861001654,-0.0618834328,0.1194562672,-0.1031628422,0.1925181330,0.2578048775,9.8008299650
1520617230866016654,-0.0608732351,0.1182692700,-0.0950572246,0.2394182738,0.2542038035,9.7806205286
1520617230871030654,-0.0586043478,0.1170754808,-0.0842484816,0.2766978729,0.2506034788,9.7605047326
1520617230876046654,-0.0560953309,0.1097721845,-0.0770039868,0.3091672012,0.2314147032,9.7055866397
1520617230881062654,-0.0530852061,0.1036448213,-0.0735391756,0.2646721958,0.1714611475,9.7246724970
1520617230886078654,-0.0520899099,0.0963606019,-0.0735966196,0.1768847527,0.1270997890,9.7337052393
1520617230891093654,-0.0513438777,0.0946308009,-0.0803750057,0.1299846119,-0.0119968474,9.7284866601
1520617230896109654,-0.0505990374,0.0905633678,-0.0847362634,0.0939075805,-0.1343063608,9.7126870691
1520617230901124654,-0.0506124883,0.0850467294,-0.0920832412,0.0794767680,-0.2206433474,9.7896132231
1520617230906138654,-0.0445982329,0.0807147460,-0.1056550837,0.0770716326,-0.2422276877,9.7071454606
1520617230911154654,-0.0405925216,0.0772539432,-0.1184048854,0.0818819034,-0.2182452538,9.6687245031
1520617230916170654,-0.0333129747,0.0787472289,-0.1308524161,0.0313740595,-0.2542155328,9.4984160344
1520617230921184654,-0.0262784304,0.0866588884,-0.1462265771,-0.0323620293,-0.3381503985,9.4107953156
1520617230926201654,-0.0139645407,0.0969073339,-0.1629454841,-0.0708441961,-0.3633293503,9.3530872358
1520617230931216654,-0.0021536015,0.1065713566,-0.1791268121,-0.0010952688,-0.3525425187,9.3686678339
1520617230936231654,0.0076424934,0.1092246091,-0.1891352047,0.0373868980,-0.2494194394,9.4321106264
1520617230941247654,0.0174394037,0.1048503966,-0.1864812942,0.1131486640,-0.1439009827,9.4591617609
1520617230946262654,0.0287407119,0.0952194701,-0.1792709194,0.1540359662,-0.0803497247,9.6214019675
1520617230951278654,0.0395358078,0.0803317702,-0.1677708923,0.1792898882,-0.0096024066,9.7256801262
1520617230956292654,0.0405309864,0.0619254055,-0.1495156926,0.2237848935,0.0227709194,9.8774563250
1520617230961308654,0.0432827987,0.0438205841,-0.1347786336,0.1720744819,0.0815328275,9.9278745348
1520617230966325654,0.0432729623,0.0271694171,-0.1192136875,0.2285951644,0.1007146723,9.9447378470
1520617230971339654,0.0457703943,0.0061477382,-0.1034162090,0.3043569303,0.1522718099,9.9404637150
1520617230976355654,0.0457647292,-0.0105172690,-0.0827108909,0.4234111339,0.2218126821,9.9194806456
1520617230981371654,0.0435028671,-0.0257378946,-0.0576615225,0.4546778944,0.2937586724,9.9644297680
1520617230986386654,0.0409875539,-0.0412441758,-0.0347782776,0.3873341025,0.3189458662,9.9383313840
1520617230991402654,0.0387270992,-0.0555913762,-0.0094516941,0.3536622065,0.3369355950,9.9525873130
1520617230996417654,0.0374662572,-0.0722612463,0.0128792330,0.2803055761,0.4004957507,9.9881036651
1520617231001432654,0.0341958636,-0.0871784979,0.0333334112,0.2610644926,0.4052938110,9.9336655028
1520617231006447654,0.0311802541,-0.0959605505,0.0478817977,0.2093540810,0.4280815064,9.8400129425
1520617231011464654,0.0286674186,-0.1044502932,0.0621609279,0.1239717734,0.3681311351,9.7769845509
1520617231016479654,0.0284164687,-0.1053296442,0.0640485466,-0.0167286490,0.3537524082,9.7562873395
1520617231021493654,0.0266581727,-0.1032840858,0.0616324622,-0.0708441961,0.2854056188,9.7882586061
1520617231026509654,0.0249022134,-0.0977339004,0.0562670500,-0.1742650194,0.2194609503,9.8160588656
1520617231031525654,0.0269049710,-0.0950735020,0.0424854833,-0.1790752903,0.1798896909,9.8266035696
1520617231036540654,0.0299191731,-0.0871648746,0.0276598816,-0.1959112383,0.1055442959,9.7873270450
1520617231041556654,0.0349407354,-0.0795381029,0.0095817724,-0.1454033943,0.1247266090,9.8356267693
1520617231046571654,0.0439814520,-0.0727824526,-0.0090515655,-0.1189469046,0.1343176719,9.7970091528
1520617231051587654,0.0550219466,-0.0774060368,-0.0218233278,-0.1201494724,0.1271229230,9.7900550102
1520617231056602654,0.0632938808,-0.0872850950,-0.0311128750,0.0001072989,0.1427023825,9.7900314471
1520617231061618654,0.0745897907,-0.0960200150,-0.0320122078,0.1299846119,0.1414931268,9.7074183935
1520617231066633654,0.0861429230,-0.1062379827,-0.0231834705,0.1925181330,0.1606745032,9.7288717563
1520617231071648654,0.0924323602,-0.1118199038,-0.0053813481,0.2165694873,0.1798588768,9.7669696962
1520617231076664654,0.0934371281,-0.1238187227,0.0140049430,0.1913155653,0.2542075499,9.8217637692
1520617231081680654,0.0906663409,-0.1407747406,0.0341720802,0.0915024451,0.2901895364,9.8273487846
1520617231086695654,0.0843736417,-0.1562562750,0.0473226737,0.0530202783,0.3441538526,9.8939129315
1520617231091711654,0.0768325009,-0.1653256569,0.0597128709,0.0542228460,0.4400849928,9.9728334682
1520617231096726654,0.0652711160,-0.1705933181,0.0664579721,0.0818819034,0.4580699450,10.0469239249
1520617231101741654,0.0486947121,-0.1668256575,0.0716580479,0.0097278406,0.5012446198,10.1684471033
1520617231106756654,0.0316219284,-0.1531270817,0.0680066276,-0.1177443369,0.5228390754,10.2463682921
1520617231111772654,0.0148028310,-0.1332896647,0.0570966861,-0.2031266446,0.5252440061,10.2425484366
1520617231116787654,-0.0040193023,-0.1052818852,0.0416534446,-0.2259754311,0.5228475048,10.2927453614
1520617231121801654,-0.0228503113,-0.0795862428,0.0191582251,-0.2440139468,0.4520996247,10.3569078458
1520617231126818654,-0.0446977022,-0.0559380293,-0.0009120423,-0.1646444777,0.4377037581,10.3073392980
1520617231131834654,-0.0660393747,-0.0311291799,-0.0190805295,-0.1153392015,0.3957300032,10.2662252792
1520617231136850654,-0.0821046030,-0.0051447121,-0.0402259304,-0.0251466230,0.3213762724,10.2061505573
1520617231141864654,-0.1004352726,0.0135338604,-0.0538474228,0.0506151429,0.2734047549,10.0752997895
1520617231146880654,-0.1177639656,0.0272476348,-0.0631798402,0.0806793357,0.2182419539,10.0378723461
1520617231151895654,-0.1355976790,0.0380422680,-0.0706397338,0.0939075805,0.2158426428,10.0086923303
1520617231156910654,-0.1511719494,0.0462109561,-0.0765005603,0.0830844711,0.2158434858,9.9599876298
1520617231161927654,-0.1685065034,0.0520413228,-0.0799409913,0.1011229868,0.2134438000,9.9981651431
1520617231166943654,-0.1863426044,0.0566972133,-0.0801428305,0.0686536586,0.2230394522,10.0902811973
1520617231171956654,-0.2036723207,0.0654385116,-0.0824788471,0.1143512317,0.2182393315,10.1909476065
1520617231176973654,-0.2237558918,0.0838031574,-0.0879829187,0.0999204191,0.2302318596,10.2294271243
1520617231181988654,-0.2420794027,0.1030433744,-0.0937541340,0.0999204191,0.2386258426,10.2898504245
1520617231187003654,-0.2654367664,0.1161610904,-0.0990216078,0.0301714918,0.2062544834,10.3358845042
1520617231192019654,-0.2847715415,0.1319086699,-0.1064409086,-0.0516031127,0.1834771843,10.3367026655
1520617231197034654,-0.3063752666,0.1418254874,-0.1130888329,-0.0287543262,0.1211201027,10.2063809521
1520617231202050654,-0.3234513945,0.1529008741,-0.1164897151,0.0482100075,0.0887373170,10.1522047788
1520617231207068654,-0.3385247491,0.1560994681,-0.1161667119,0.1780873205,0.0863289209,10.0963222055
1520617231212080654,-0.3550998749,0.1616190780,-0.1123060270,0.1660616433,0.0971221213,10.2126431275
1520617231217097654,-0.3626320771,0.1618863844,-0.1044439712,0.1059332577,0.0683474342,10.1563113907
1520617231222110654,-0.3741852801,0.1621528439,-0.0968449937,0.0506151429,-0.0479648786,10.1778818404
1520617231227127654,-0.3819587959,0.1691189822,-0.0878491567,0.0025124344,-0.1319009618,10.0494339174
1520617231232142654,-0.3844704317,0.1658938286,-0.0808347501,0.1143512317,-0.1115242850,9.9170032016
1520617231237158654,-0.3816925643,0.1705330258,-0.0718763002,0.0349817626,-0.1918605118,9.8086125494
1520617231242173654,-0.3771750464,0.1626513903,-0.0659927148,0.0674510909,-0.2182441299,9.7188371538
1520617231247189654,-0.3733999931,0.1605854951,-0.0557345332,0.0830844711,-0.1426995008,9.8662036019
1520617231252204654,-0.3665962950,0.1652095137,-0.0405609952,0.0566279814,-0.1834682147,9.8153665367
1520617231257220654,-0.3600581974,0.1581729537,-0.0235820926,0.0433997366,-0.1498912526,9.8317325662
1520617231262235654,-0.3492518499,0.1473456981,-0.0050167490,-0.0876801441,-0.1510801841,9.6644987133
1520617231267249654,-0.3419934303,0.1134925873,0.0152733262,-0.0720467638,-0.1294968740,9.5701918392
1520617231272265654,-0.3319678694,0.0796310900,0.0390753641,-0.1117314984,-0.1450826088,9.5601340119
1520617231277282654,-0.3206806278,0.0478017639,0.0658666349,-0.1393905558,-0.2374142672,9.5174939410
1520617231282298654,-0.3073841363,0.0162697090,0.0907625736,-0.1886958320,-0.2506009718,9.5005545517
1520617231287312654,-0.2943365169,-0.0108800215,0.1113635911,-0.2728755719,-0.2853694879,9.3665991178
1520617231292327654,-0.2767580306,-0.0292718754,0.1266119821,-0.3570553118,-0.3009517572,9.3139750513
1520617231297343654,-0.2616976212,-0.0458916400,0.1326798185,-0.4352222132,-0.2973482480,9.2252472874
1520617231302358654,-0.2433629292,-0.0546318160,0.1347434223,-0.4568684320,-0.3057405451,9.2103582924
1520617231307374654,-0.2267895676,-0.0630725555,0.1335659655,-0.4580709997,-0.3333206812,9.2859362493
1520617231312390654,-0.2061994666,-0.0723764037,0.1288572752,-0.4676915414,-0.3968743743,9.3349019108
1520617231317405654,-0.1848563002,-0.0805064057,0.1211800723,-0.4207914006,-0.4364496610,9.4100233588
1520617231322419654,-0.1655149035,-0.0831045315,0.1149015712,-0.4231965360,-0.4280554908,9.4088764396
1520617231327436654,-0.1426499561,-0.0819140084,0.1089159820,-0.4099682912,-0.3752943424,9.3819669221
1520617231332451654,-0.1228014337,-0.0824780730,0.1048164763,-0.2957243585,-0.3765023805,9.4854490670
1520617231337466654,-0.1057066525,-0.0801512283,0.1088607122,-0.2404062437,-0.3920955144,9.6104373829
1520617231342482654,-0.0871049134,-0.0781137205,0.1123588329,-0.2800909782,-0.4568460064,9.6643454159
1520617231347497654,-0.0697640710,-0.0804525719,0.1177197623,-0.3630681504,-0.4760257907,9.6872525094
1520617231352512654,-0.0546771674,-0.0743297748,0.1185500814,-0.4448427549,-0.4484391921,9.6310765047
1520617231357529654,-0.0418472018,-0.0647112494,0.1194112780,-0.4256016715,-0.4100681971,9.5390424325
1520617231362543654,-0.0310277601,-0.0556784661,0.1210833999,-0.3967400463,-0.3776936535,9.5085141962
1520617231367559654,-0.0179508943,-0.0489722307,0.1213808071,-0.4039554526,-0.3501128618,9.4911253724
1520617231372574654,-0.0046276576,-0.0460546242,0.1219193934,-0.4147785620,-0.3501120188,9.4540421114
1520617231377590654,0.0071768324,-0.0507114208,0.1215913422,-0.3943349109,-0.3309273643,9.4979858863
1520617231382606654,0.0197276525,-0.0606113866,0.1206807834,-0.3835118015,-0.2901574328,9.4745979041
1520617231387620654,0.0302704499,-0.0716907900,0.1246348923,-0.3654732858,-0.3189382079,9.3977488915
1520617231392637654,0.0408084095,-0.0856811249,0.1274845866,-0.3618655827,-0.4208654249,9.3118145175
1520617231397653654,0.0521052838,-0.0950046414,0.1287451748,-0.3029397647,-0.5335892140,9.2404601064
1520617231402667654,0.0618989010,-0.0993679274,0.1273408969,-0.2909140876,-0.6247248228,9.2636748047
1520617231407684654,0.0666686939,-0.1034476254,0.1281125436,-0.2764832750,-0.7182588997,9.3112734546
1520617231412699654,0.0719362506,-0.1089745796,0.1253550449,-0.2957243585,-0.7758161415,9.2998954243
1520617231417713654,0.0807242373,-0.1118733240,0.1209877444,-0.1490110975,-0.8118017807,9.2578274492
1520617231422729654,0.0870052065,-0.1150855620,0.1244687190,0.1636565079,-0.8082287110,9.3721571659
1520617231427745654,0.0880022944,-0.1255954073,0.1319621061,0.3885366702,-0.8082462254,9.4931555795
1520617231432760654,0.0874962741,-0.1410972586,0.1534888877,0.5340473635,-0.8850025454,9.5638670305
1520617231437776654,0.0839665212,-0.1653542106,0.1795538576,0.5484781760,-0.9041899161,9.7136618494
1520617231442791654,0.0751580424,-0.1901938138,0.2048125449,0.3753084254,-0.9005790078,9.7618296276
1520617231447806654,0.0671097523,-0.2100781279,0.2295665327,0.2839132792,-0.8370174472,9.7487115095
1520617231452821654,0.0547943179,-0.2232484315,0.2492392137,0.1949232684,-0.7075033506,9.6727498940
1520617231457837654,0.0422323050,-0.2282389422,0.2611287768,-0.0491979773,-0.6019599804,9.6145916330
1520617231462853654,0.0379720488,-0.2235966742,0.2679359279,-0.2849012490,-0.4400576659,9.5737286370
1520617231467868654,0.0327049900,-0.2125101043,0.2620781966,-0.4051580203,-0.2254021641,9.4898533222
1520617231472883654,0.0297031530,-0.1941169106,0.2484260110,-0.4797172185,-0.0970883319,9.4579138857
1520617231477899654,0.0294668421,-0.1722143646,0.2304666341,-0.5518712813,0.0312253130,9.4364103347
1520617231482914654,0.0304831636,-0.1494204188,0.2062890372,-0.5939611513,0.1487443526,9.4704075911
1520617231487930654,0.0332486388,-0.1321540772,0.1790899298,-0.5891508804,0.2626623182,9.5132490099
1520617231492945654,0.0314853758,-0.1157498211,0.1467521821,-0.5254147916,0.2830427414,9.6079045674
1520617231497960654,0.0302390082,-0.0891483665,0.1150324008,-0.3895246401,0.2470579452,9.7379392430
1520617231502976654,0.0307626743,-0.0593628459,0.0914501832,-0.3654732858,0.1870990508,9.8481672845
1520617231507993654,0.0332826058,-0.0409449048,0.0694008069,-0.2824961136,0.2218676605,9.8880007632
1520617231513008654,0.0292633144,-0.0257311111,0.0459863819,-0.2175574571,0.1762952668,9.9094938602
1520617231518023654,0.0227275925,-0.0169462440,0.0290208179,-0.0672364930,0.1127291169,9.9359841580
1520617231523037654,0.0179580428,-0.0040864033,0.0139769312,-0.0455902742,0.0096013546,9.9021718555
1520617231528054654,0.0116962719,0.0192583190,0.0006391513,-0.1165417692,-0.1366882512,9.9018429692
1520617231533069654,0.0094560742,0.0431873857,-0.0127016500,-0.0876801441,-0.1342922181,9.8655332466
1520617231538084654,0.0094791380,0.0638924411,-0.0187663665,-0.0022978365,-0.2422215061,9.8241323898
1520617231543100654,0.0037017348,0.0679797580,-0.0225121513,0.1035281222,-0.2889962247,9.8080400776
1520617231548116654,0.0031982943,0.0647626764,-0.0182069374,0.2827107115,-0.3861405543,9.7773371418
1520617231553130654,-0.0066139920,0.0498698169,-0.0077508226,0.3079646335,-0.4556926657,9.8329420671
1520617231558146654,-0.0234734305,0.0247655442,0.0064281950,0.4041700505,-0.5264494435,9.8599661085
1520617231563162654,-0.0264856568,0.0168503609,0.0236887097,0.4198034308,-0.6211827546,9.9238242381
1520617231568177654,-0.0299987714,0.0077585161,0.0449994540,0.5111985769,-0.6115967493,9.9973025122
1520617231573192654,-0.0508703899,-0.0191320606,0.0726998954,0.6098091294,-0.6355872379,10.0904997446
1520617231578208654,-0.0586505390,-0.0297058115,0.1026649272,0.5917706137,-0.6092047437,10.2010532706
1520617231583224654,-0.0739850015,-0.0493052385,0.1287874025,0.4715138424,-0.5540349182,10.1893864032
1520617231588240654,-0.0918358787,-0.0694796778,0.1516635481,0.2706850343,-0.4988588175,10.2377731162
1520617231593255654,-0.1041528890,-0.0808885624,0.1664797415,0.1480231276,-0.4340956814,10.2040395690
1520617231598270654,-0.1119391147,-0.0814904091,0.1724417735,0.0001072989,-0.3249623826,10.0624291747
1520617231603284654,-0.1297803632,-0.0806225174,0.1722110342,-0.1429982589,-0.2290200032,10.0218913469
1520617231608300654,-0.1375713600,-0.0756472659,0.1630647346,-0.2560396239,-0.1678550376,9.9067175905
1520617231613315654,-0.1393258100,-0.0639554240,0.1493590844,-0.2500267854,-0.1019027826,9.8089746594
1520617231618333654,-0.1463791290,-0.0650727287,0.1304250476,-0.1923035351,-0.0923141549,9.7398369687
1520617231623346654,-0.1509293117,-0.0723030249,0.1095458375,-0.1345802849,-0.0635392804,9.7276256223
1520617231628362654,-0.1512125187,-0.0836124876,0.0891686617,-0.0960981181,-0.0731354009,9.7458547184
1520617231633378654,-0.1537639700,-0.0995842604,0.0684895712,0.0013098666,-0.1534853958,9.7612549700
1520617231638394654,-0.1575604797,-0.1082770113,0.0497622126,0.1035281222,-0.2290392035,9.8567916567
1520617231643409654,-0.1633536586,-0.1088205243,0.0343473850,0.1925181330,-0.3165833853,9.9431716409
1520617231648425654,-0.1711497167,-0.1082189544,0.0262499227,0.2839132792,-0.3585604183,10.0097273328
1520617231653439654,-0.1804508979,-0.1108465149,0.0267882755,0.2947363886,-0.4377045291,10.0050505879
1520617231658454654,-0.1854820220,-0.1146364828,0.0267687099,0.3055594980,-0.4317096700,10.0293444187
1520617231663471654,-0.1915160558,-0.1175563332,0.0281104099,0.2490388155,-0.4125190212,10.0194165514
1520617231668487654,-0.1983001127,-0.1169769509,0.0283980035,0.1576436693,-0.4161093243,10.0110124920
1520617231673500654,-0.2002977032,-0.1085319578,0.0300894821,0.1396051536,-0.3597483195,9.9483773354
1520617231678517654,-0.2007892139,-0.1003733880,0.0301526619,0.0614382523,-0.3357594231,9.8317382379
1520617231683532654,-0.2002732398,-0.0898804343,0.0291495760,0.0109304084,-0.3417511915,9.8136413937
1520617231688547654,-0.1929731578,-0.0773327474,0.0235501699,-0.0251466230,-0.2841896414,9.8174228490
1520617231693563654,-0.1859161025,-0.0583732425,0.0174590465,-0.0215389199,-0.2853890628,9.8778203888
1520617231698579654,-0.1773521755,-0.0391173917,0.0097440706,0.0061201375,-0.2482178638,9.8159212934
1520617231703593654,-0.1655261154,-0.0233568753,0.0019963502,0.0830844711,-0.3081808793,9.7977984774
1520617231708609654,-0.1521976802,-0.0140171542,-0.0017448899,0.1059332577,-0.3165766418,9.7452877888
1520617231713625654,-0.1373680541,-0.0105089036,-0.0039101167,0.1432128568,-0.3081855623,9.7205117236
1520617231718640654,-0.1205209610,-0.0043890594,-0.0017303352,0.1756821850,-0.2985949677,9.6853220138
1520617231723655654,-0.1014240142,-0.0073027064,0.0009174219,0.2213797581,-0.3897331989,9.6175617421
1520617231728671654,-0.0813260944,-0.0128362350,0.0027316667,0.1841001590,-0.4412933337,9.6017048650
1520617231733687654,-0.0652537073,-0.0218679532,0.0045267020,0.1576436693,-0.4316981498,9.5589536953
1520617231738702654,-0.0441582840,-0.0303025499,0.0017175688,0.1732770496,-0.4556821758,9.5413927570
1520617231743717654,-0.0248182163,-0.0372867406,0.0010871853,0.2009361070,-0.4724722959,9.5597342147
1520617231748733654,-0.0067372812,-0.0457261610,-0.0003636177,0.2382157061,-0.4760726207,9.5489155704
1520617231753748654,0.0141134844,-0.0500851149,-0.0017884315,0.2201771904,-0.4760712158,9.6083604879
1520617231758764654,0.0321994416,-0.0523945337,-0.0072507382,0.2839132792,-0.4472968096,9.6948728523
1520617231763779654,0.0467729782,-0.0506266759,-0.0124048416,0.2947363886,-0.4568907759,9.7772890823
1520617231768795654,0.0611101605,-0.0430545359,-0.0088565480,0.1901129976,-0.5420215976,9.8306869232
1520617231773810654,0.0749428084,-0.0372323567,-0.0047795676,0.1191615025,-0.5204315440,9.9196794140
1520617231778825654,0.0842603614,-0.0206095978,-0.0084577631,0.0578305492,-0.3717333548,10.0874801032
1520617231783841654,0.0920722031,0.0027377244,-0.0207394959,0.1468205599,-0.3477574772,10.0668340950
1520617231788857654,0.0978672717,0.0202514693,-0.0311681353,0.2141643518,-0.4364991135,10.0139686650
1520617231793873654,0.1084241200,0.0255165514,-0.0370997319,0.3680930191,-0.4509007871,9.9811065631
1520617231798887654,0.1157073481,0.0243633381,-0.0406392559,0.4979703321,-0.4868851150,9.9740667774
1520617231803902654,0.1235023124,0.0252288889,-0.0363183207,0.6134168325,-0.5456519871,9.9427846468
1520617231808919654,0.1292850237,0.0193677697,-0.0231167681,0.6735452182,-0.6559775891,9.9550905567
1520617231813935654,0.1312956535,0.0102941164,-0.0077683015,0.6518989994,-0.8346478263,9.9752319265
1520617231818950654,0.1383420176,0.0049951341,0.0132811946,0.6422784577,-0.9053963620,9.8952066251
1520617231823964654,0.1443781331,-0.0017509667,0.0305337996,0.6266450774,-0.9065942848,9.8581713536
1520617231828980654,0.1486567876,-0.0061615814,0.0459136351,0.5280345249,-0.8550235665,9.7940008252
1520617231833995654,0.1552006091,-0.0073631665,0.0602315404,0.3729032900,-0.7602793909,9.7605540811
1520617231839011654,0.1607358206,-0.0047487378,0.0640289228,0.2273925967,-0.6343583136,9.7827662035
1520617231844026654,0.1667633465,-0.0053196743,0.0604961787,0.1672642110,-0.4448894437,9.8052474358
1520617231849042654,0.1710259823,-0.0067501566,0.0512785685,0.1444154245,-0.2566226177,9.7436926161
1520617231854056654,0.1740250908,-0.0110847783,0.0382534185,0.1444154245,-0.1403059966,9.7296334627
1520617231859072654,0.1780304140,-0.0119100086,0.0206537985,0.1335923151,-0.0791489921,9.7529220510
1520617231864089654,0.1787660454,-0.0115564121,-0.0023417798,0.1564411016,-0.0851464738,9.7224897588
1520617231869104654,0.1777471601,-0.0079990033,-0.0250390911,0.2105566487,-0.1211249012,9.7626731498
1520617231874118654,0.1719528835,-0.0085388742,-0.0418066482,0.3139774720,-0.1103406921,9.8476546436
1520617231879135654,0.1664117914,-0.0099629981,-0.0547936987,0.3741058577,-0.1738998175,9.8657256690
1520617231884150654,0.1608709189,-0.0113878505,-0.0675102033,0.4077777536,-0.2086775123,9.9363226194
1520617231889165654,0.1548263902,-0.0145655776,-0.0786158377,0.3981572119,-0.1906896567,9.9236151363
1520617231894181654,0.1475330592,-0.0148423350,-0.0850976273,0.3296108523,-0.1870868968,9.9068466572
1520617231899197654,0.1420054690,-0.0081157049,-0.0950464265,0.2394182738,-0.2062661191,9.9089053898
1520617231904211654,0.1337230948,0.0056030708,-0.1049367378,0.2129617841,-0.2470348329,9.9068783707
1520617231909227654,0.1302160139,0.0196143732,-0.1145631478,0.2177720550,-0.2254506800,9.8533518805
1520617231914243654,0.1231931643,0.0336162846,-0.1212070189,0.1961258361,-0.1798816580,9.8790853036
1520617231919258654,0.1166717323,0.0496711963,-0.1327060879,0.1684667787,-0.1714855208,9.8746977587
1520617231924272654,0.1154273013,0.0616313098,-0.1377529798,0.2021386747,-0.1786829859,9.9231870792
1520617231929290654,0.1111743607,0.0762010477,-0.1384455290,0.2430259770,-0.1882792937,9.9750949399
1520617231934304654,0.1044083847,0.0895991639,-0.1372484819,0.2225823258,-0.1858794206,10.0171287696
1520617231939320654,0.0981410429,0.0986201533,-0.1336508015,0.1600488048,-0.1666883035,9.9607736693
1520617231944336654,0.0948813285,0.1035709535,-0.1330658499,0.1323897474,-0.1451016217,9.8668881772
1520617231949351654,0.0891070891,0.1085258681,-0.1343700523,0.1167563671,-0.0935373659,9.8135314395
1520617231954365654,0.0850855159,0.1079415238,-0.1343670309,0.0927050128,-0.0851415098,9.7010293917
1520617231959381654,0.0797942094,0.0989123633,-0.1365905125,0.0746664971,-0.0743478411,9.6279793743
1520617231964397654,0.0767615147,0.0884308085,-0.1401820396,0.1444154245,-0.0503704649,9.5854399119
1520617231969413654,0.0737223083,0.0729949882,-0.1435408131,0.2670773312,-0.0359903331,9.5958534037
1520617231974427654,0.0691731017,0.0531754260,-0.1423308524,0.3103697689,-0.0431885474,9.6151954849
1520617231979444654,0.0671455475,0.0385966708,-0.1391917222,0.2706850343,-0.0623717034,9.7062476896
1520617231984458654,0.0610994584,0.0266431717,-0.1376483919,0.3332185554,-0.1091430502,9.8730333603
1520617231989475654,0.0517996336,0.0222549207,-0.1325240974,0.3584724774,-0.2002796893,10.0088472665
1520617231994490654,0.0442691054,0.0245655609,-0.1259992096,0.3692955868,-0.2410513066,10.0947803312
1520617231999506654,0.0352394954,0.0332860700,-0.1194226135,0.3692955868,-0.2350556045,10.1726381294
1520617232004520654,0.0242019607,0.0446318943,-0.1141750053,0.3789161285,-0.2314589325,10.1539466777
1520617232009537654,0.0159305126,0.0556801328,-0.1062292952,0.3043569303,-0.1978771937,10.1337210585
1520617232014552654,0.0051359577,0.0594435020,-0.0986050409,0.2129617841,-0.1894760926,10.0950895630
1520617232019567654,-0.0008877851,0.0626361709,-0.0947817431,0.1841001590,-0.2146557937,9.9675592055
1520617232024581654,-0.0079253010,0.0600029406,-0.0918126777,0.1853027267,-0.2158550277,9.9106036160
1520617232029598654,-0.0104429114,0.0556268176,-0.0902180814,0.1552385339,-0.2158526862,9.8167625821
1520617232034614654,-0.0109556787,0.0457086203,-0.0862345444,0.1227692057,-0.2470278084,9.7252996491
1520617232039629654,-0.0089628946,0.0296694187,-0.0812201759,0.2009361070,-0.2961986537,9.6269666712
1520617232044644654,-0.0092351089,0.0077863435,-0.0705646047,0.1973284039,-0.3285751641,9.5503318575
1520617232049660654,-0.0077506582,-0.0184784654,-0.0556169125,0.1985309716,-0.3681468918,9.5387373011
1520617232054674654,-0.0045079076,-0.0453253541,-0.0406769336,0.2285951644,-0.4101191481,9.4850269797
1520617232059691654,-0.0015161539,-0.0742222310,-0.0219644070,0.2382157061,-0.4400984080,9.5082054518
1520617232064706654,-0.0000321422,-0.1004855830,-0.0075578067,0.2045438101,-0.4113164153,9.4794515304
1520617232069721654,0.0027144363,-0.1217927205,0.0060726148,0.1756821850,-0.3381666017,9.5482276154
1520617232074736654,0.0049624748,-0.1363814568,0.0135325451,0.1384025859,-0.3141808897,9.6171335786
1520617232079752654,0.0052052350,-0.1439631835,0.0156386454,0.0758690649,-0.2889940705,9.6525820041
1520617232084767654,0.0034462373,-0.1416225985,0.0118720546,0.0614382523,-0.2182436616,9.6770584968
1520617232089783654,0.0021904136,-0.1372348405,0.0054146330,0.0301714918,-0.2098472435,9.7435968482
1520617232094798654,0.0024481929,-0.1275971997,-0.0026288488,0.0602356846,-0.2338323935,9.8211912535
1520617232099813654,-0.0015608702,-0.1132954381,-0.0119815564,0.1227692057,-0.2278415617,9.8670625021
1520617232104828654,-0.0035579980,-0.0960710308,-0.0242917718,0.1408077214,-0.2698128814,9.9273593387
1520617232109844654,-0.0063036592,-0.0765231269,-0.0338773434,0.1323897474,-0.2614182428,9.9146495053
1520617232114861654,-0.0100542570,-0.0587326652,-0.0402278358,0.0722613617,-0.2602144194,9.8978014294
1520617232119876654,-0.0100391947,-0.0418061391,-0.0498385492,0.0854896066,-0.2614145901,9.8918631234
1520617232124891654,-0.0105255422,-0.0240056564,-0.0594416598,0.0746664971,-0.2638120280,9.8687279285
1520617232129908654,-0.0092505162,-0.0067974515,-0.0652648410,0.0854896066,-0.2937913815,9.8233282022
1520617232134922654,-0.0059722700,0.0054594609,-0.0716706404,0.0987178514,-0.2758053054,9.7371832539
1520617232139938654,-0.0016910318,0.0147970944,-0.0759361703,0.1239717734,-0.2338373574,9.6660057396
1520617232144953654,0.0040920599,0.0197645508,-0.0802378468,0.1215666379,-0.2482268552,9.6323410072
1520617232149969654,0.0143951434,0.0224034315,-0.0848362549,0.1672642110,-0.2230484654,9.6063044919
1520617232154983654,0.0236865628,0.0197948117,-0.0886611740,0.2273925967,-0.2458368164,9.5557692665
1520617232159999654,0.0354937814,0.0174705481,-0.0895125323,0.2947363886,-0.2626300273,9.6039402002
1520617232165015654,0.0480564765,0.0148486396,-0.0879326009,0.3115723366,-0.2410468109,9.6374574559
1520617232170044654,0.0643819657,0.0069818295,-0.0858585940,0.2538490864,-0.1810852941,9.6565551349
1520617232175046654,0.0776960913,0.0017341134,-0.0829473411,0.2273925967,-0.1582995655,9.5917103673
1520617232180062654,0.0917660070,-0.0014707019,-0.0811041102,0.2779004406,-0.1547060780,9.5505402085
1520617232185076654,0.1096049660,-0.0046725835,-0.0798089720,0.2851158469,-0.1690963250,9.6248612233
1520617232190093654,0.1284509747,-0.0040751460,-0.0825449891,0.2670773312,-0.0995447756,9.6458875687
1520617232195108654,0.1457968469,0.0026429612,-0.0860431587,0.1925181330,-0.0623656155,9.6512256085
1520617232200123654,0.1656535552,0.0090764958,-0.0917125857,0.1804924559,-0.0467758534,9.6327331543
1520617232205137654,0.1819922171,0.0175570850,-0.1006064678,0.1853027267,-0.0024080324,9.6349673565
1520617232210154654,0.2003395996,0.0254586064,-0.1105907135,0.1973284039,0.0575480522,9.6452511345
1520617232215169654,0.2204424710,0.0324946762,-0.1235609003,0.2021386747,0.0695390818,9.7091105384
1520617232220184654,0.2370234657,0.0377854310,-0.1381611669,0.1432128568,0.1103144455,9.7189414803
1520617232225201654,0.2553700602,0.0465676619,-0.1505736563,0.1095409608,0.1211093318,9.7146101220
1520617232230216654,0.2739695334,0.0550520509,-0.1605539225,0.0854896066,0.0971283965,9.7078947462
1520617232235230654,0.2903092107,0.0655781592,-0.1715966102,0.0758690649,0.0431678268,9.6847981278
1520617232240247654,0.3038904423,0.0766691996,-0.1764071621,0.1552385339,0.0059882921,9.6933589952
1520617232245262654,0.3184667466,0.0790132705,-0.1791219064,0.1816950236,0.0047870911,9.6315090238
1520617232250276654,0.3315255275,0.0714372935,-0.1773101549,0.2514439509,-0.0395865368,9.6134412367
1520617232255292654,0.3410671284,0.0615150216,-0.1703692820,0.2478362478,-0.1187295238,9.6449314150
1520617232260308654,0.3470922550,0.0504149069,-0.1593725789,0.2550516541,-0.1451111750,9.6402383343
1520617232265324654,0.3536155413,0.0381589205,-0.1519027982,0.2923312532,-0.1367200955,9.6654344592
1520617232270338654,0.3556155350,0.0253154791,-0.1433468791,0.2851158469,-0.1031436017,9.6712826678
1520617232275355654,0.3553523886,0.0118905679,-0.1356028433,0.3199903106,-0.1043454583,9.5954050335
1520617232280370654,0.3518167277,-0.0050293238,-0.1289616007,0.3404339617,-0.1355247015,9.6033714580
1520617232285385654,0.3485400576,-0.0190476551,-0.1176993138,0.3632827482,-0.2086740469,9.6113553993
1520617232290401654,0.3445135367,-0.0307381194,-0.1053356584,0.4065751859,-0.2350585080,9.6458240614
1520617232295417654,0.3392338267,-0.0380495668,-0.0961828739,0.3464468003,-0.2638331951,9.7370846068
1520617232300432654,0.3291808463,-0.0444894597,-0.0867440065,0.2959389563,-0.2242576274,9.7991312605
1520617232305446654,0.3181272027,-0.0474324036,-0.0775471410,0.3284082846,-0.1906842244,9.8313225132
1520617232310463654,0.3055640567,-0.0491994738,-0.0723967714,0.2995466595,-0.1858854149,9.8385716210
1520617232315478654,0.2922445053,-0.0533001008,-0.0664511485,0.2947363886,-0.1295254403,9.8780763767
1520617232320492654,0.2796818455,-0.0538979907,-0.0626446160,0.2598619249,-0.0887519498,9.9434561272
1520617232325509654,0.2673735228,-0.0512861817,-0.0604373716,0.2322028675,-0.0443815999,9.9878435482
1520617232330524654,0.2505374696,-0.0504178962,-0.0606699778,0.2225823258,-0.0036100763,9.9855731432
1520617232335540654,0.2352053360,-0.0530485480,-0.0598498778,0.3055594980,0.0719293079,9.9730703864
1520617232340555654,0.2203824804,-0.0533595816,-0.0546841921,0.3765109931,0.1438722073,9.9537153245
1520617232345569654,0.2048011533,-0.0568754119,-0.0498121062,0.3404339617,0.1798492298,9.9063834939
1520617232350587654,0.1912245439,-0.0635913138,-0.0465914833,0.3777135608,0.2146213987,9.9013381505
1520617232355601654,0.1786493074,-0.0711722343,-0.0466259474,0.4258162693,0.2074228097,9.8125540237
1520617232360618654,0.1668256308,-0.0822574865,-0.0437124838,0.4618933007,0.1846363319,9.7436585962
1520617232365633654,0.1585172760,-0.0962588478,-0.0394750557,0.5148062801,0.1198786280,9.6804509445
1520617232370647654,0.1509636958,-0.1102628274,-0.0341568442,0.4691087070,0.0911028169,9.6634916415
1520617232375664654,0.1441606679,-0.1268897008,-0.0285894947,0.4089803213,0.0707221127,9.5688009688
1520617232380679654,0.1378654715,-0.1403140612,-0.0219164411,0.3356236908,0.0299570516,9.5358525601
1520617232385694654,0.1350954998,-0.1479064390,-0.0162876436,0.2851158469,0.0071773172,9.6130678909
1520617232390710654,0.1308165550,-0.1534466040,-0.0155103102,0.2273925967,-0.0000130296,9.6403660606
1520617232395724654,0.1265442554,-0.1534475493,-0.0157729218,0.2273925967,-0.0383855232,9.6613220706
1520617232400741654,0.1245417801,-0.1490841249,-0.0133009287,0.2803055761,-0.0443853463,9.7072986530
1520617232405755654,0.1217847496,-0.1447188106,-0.0116391731,0.3476493680,-0.0024206765,9.7321694100
1520617232410772654,0.1195369541,-0.1377410367,-0.0061707006,0.4017649151,0.0923072023,9.7757117749
1520617232415787654,0.1162817639,-0.1322198508,-0.0009820226,0.4655010038,0.1666489445,9.7959374990
1520617232420801654,0.1105122132,-0.1307928730,0.0093205715,0.4173982953,0.2350036951,9.8335276555
1520617232425818654,0.1070062848,-0.1290787236,0.0215150095,0.3608776128,0.2458003609,9.8642830119
1520617232430834654,0.1024955648,-0.1241466265,0.0288659422,0.2827107115,0.2745858190,9.9300958379
1520617232435848654,0.0949646015,-0.1203710509,0.0324259406,0.2225823258,0.3153612764,9.9190198936
1520617232440864654,0.0866842776,-0.1116349494,0.0333196727,0.1925181330,0.3597318135,9.9029992391
1520617232445880654,0.0753913591,-0.1008610661,0.0345051130,0.1841001590,0.3645290308,9.9437515355
1520617232450895654,0.0633432778,-0.0874489920,0.0297599515,0.1804924559,0.3465422055,9.9902899490
1520617232455910654,0.0545593958,-0.0766610124,0.0260708985,0.1985309716,0.3609304857,10.0296132355
1520617232460926654,0.0397487758,-0.0661828057,0.0283428334,0.2129617841,0.3441413958,10.0434348730
1520617232465941654,0.0239285187,-0.0583245399,0.0295144438,0.1925181330,0.3633292348,10.0238587023
1520617232470956654,0.0070926850,-0.0574569828,0.0295523835,0.2093540810,0.4076961192,10.0038951188
1520617232475972654,-0.0072261105,-0.0527968002,0.0282618266,0.1804924559,0.4100966479,9.9658229510
1520617232480988654,-0.0230525266,-0.0493085739,0.0291295449,0.1901129976,0.3873122306,9.9948051268
1520617232486003654,-0.0386330501,-0.0478511996,0.0267346841,0.1672642110,0.3801191676,10.0566281685
1520617232491019654,-0.0587386226,-0.0469754529,0.0232615946,0.1708719142,0.3657292015,10.1100657073
1520617232496034654,-0.0768283511,-0.0428973308,0.0211619547,0.2225823258,0.3693225954,10.1304774730
1520617232501048654,-0.0959240238,-0.0396952131,0.0195986042,0.2502413832,0.4292774624,10.1371226535
1520617232506064654,-0.1140082128,-0.0330011862,0.0199538852,0.2694824666,0.4364708064,10.1009018940
1520617232511080654,-0.1333485902,-0.0268940628,0.0216597830,0.2466336801,0.4580571136,10.0766982189
1520617232516095654,-0.1526878228,-0.0196199444,0.0228334814,0.1456179922,0.4280864704,10.0591163738
1520617232521110654,-0.1717847305,-0.0184626173,0.0231483906,0.1480231276,0.3885146491,10.0242672333
1520617232526127654,-0.1929031156,-0.0254648447,0.0234047872,0.1973284039,0.3525365963,10.0098766787
1520617232531142654,-0.2142742150,-0.0362675527,0.0282320307,0.2033412424,0.3789172174,9.9760902533
1520617232536157654,-0.2321235709,-0.0459099001,0.0354965454,0.1576436693,0.3681285126,9.9242490916
1520617232541173654,-0.2492199007,-0.0526220813,0.0368298811,0.1420102891,0.3825194153,9.9116036417
1520617232546189654,-0.2640509303,-0.0555402786,0.0362940951,0.1961258361,0.3741212176,9.9505979940
1520617232551205654,-0.2793789279,-0.0549649722,0.0368681032,0.2045438101,0.3477394727,10.0028382620
1520617232556218654,-0.2926994751,-0.0537937258,0.0328435435,0.1985309716,0.3333502559,10.0354508501
1520617232561235654,-0.3035070811,-0.0537921319,0.0306992454,0.1576436693,0.3201628957,9.9917002145
1520617232566250654,-0.3130622780,-0.0543618884,0.0244899791,0.1828975913,0.3045721033,9.9438217076
1520617232571265654,-0.3203473879,-0.0508608449,0.0218247321,0.2081515133,0.2673967833,9.9412878630
1520617232576282654,-0.3306487464,-0.0488222762,0.0207772458,0.2358105707,0.2470092420,9.9410385255
1520617232581297654,-0.3361775833,-0.0485308724,0.0199780991,0.2622670604,0.2146303900,9.9164075633
1520617232586312654,-0.3419592205,-0.0514542665,0.0226720619,0.2947363886,0.1762553677,9.8917239226
1520617232591328654,-0.3472435018,-0.0605067367,0.0291060489,0.4017649151,0.1210865724,9.8849252424
1520617232596344654,-0.3502662307,-0.0716067537,0.0387668246,0.4246137016,0.0611277717,9.8138705321
1520617232601359654,-0.3532975886,-0.0911663916,0.0518802275,0.4282214047,0.0299498397,9.7441371825
1520617232606373654,-0.3543191243,-0.1098452609,0.0628321986,0.4149931599,-0.0300061512,9.6838929195
1520617232611389654,-0.3543372641,-0.1282250675,0.0710790670,0.3632827482,-0.1187385151,9.5810519561
1520617232616404654,-0.3523415789,-0.1431031015,0.0777256033,0.3344211231,-0.1607061821,9.4942130078
1520617232621419654,-0.3475798817,-0.1533026030,0.0787211111,0.2766978729,-0.1786887928,9.4634145038
1520617232626435654,-0.3440681628,-0.1570848529,0.0770624015,0.2622670604,-0.1487091583,9.4681743068
1520617232631451654,-0.3380360187,-0.1547441295,0.0743635259,0.2839132792,-0.1595031080,9.5132977541
1520617232636465654,-0.3312554273,-0.1541412198,0.0678622690,0.2430259770,-0.1822835916,9.5450958302
1520617232641482654,-0.3234745726,-0.1587901220,0.0640245887,0.2538490864,-0.1930766983,9.6031082064
1520617232646497654,-0.3126754504,-0.1622759469,0.0615429295,0.3596750451,-0.1463184639,9.5578710870
1520617232651513654,-0.3023764717,-0.1675263013,0.0650008750,0.4029674828,-0.1607115207,9.5632744568
1520617232656528654,-0.2923296308,-0.1745301604,0.0703397699,0.4246137016,-0.1355312577,9.5026077240
1520617232661543654,-0.2790123806,-0.1771539588,0.0727299389,0.4077777536,-0.1571144741,9.4656040364
1520617232666559654,-0.2649421631,-0.1824086639,0.0783452507,0.3825238317,-0.2098746859,9.4682255814
1520617232671574654,-0.2501224909,-0.1902826206,0.0828569709,0.4161957276,-0.2122755892,9.4841701939
1520617232676590654,-0.2360564134,-0.2002067623,0.0911421723,0.4101828891,-0.2014828571,9.4505160204
1520617232681605654,-0.2199780478,-0.2066240326,0.0959332202,0.3813212639,-0.1894892050,9.4902981428
1520617232686622654,-0.2056542380,-0.2080811707,0.0980598688,0.3320159877,-0.1798922416,9.4814715438
1520617232691635654,-0.1915823817,-0.2080727434,0.0969515487,0.3079646335,-0.1714963854,9.4758867398
1520617232696652654,-0.1787691209,-0.2057162499,0.0893702454,0.2249874613,-0.1199268847,9.4743198192
1520617232701668654,-0.1649386056,-0.1928622353,0.0791616473,0.1347948828,-0.1139241580,9.4891375792
1520617232706682654,-0.1498415128,-0.1695040452,0.0638903747,0.1744796173,-0.1151263892,9.5433732475
1520617232711697654,-0.1385141180,-0.1446831250,0.0459317593,0.1744796173,-0.1127281084,9.5584787802
1520617232716714654,-0.1256787539,-0.1195695011,0.0277020209,0.1624539402,-0.0875452229,9.5562469868
1520617232721728654,-0.1120895324,-0.0926992619,0.0065082159,0.1660616433,-0.1079308911,9.5759881976
1520617232726745654,-0.1002629272,-0.0702084926,-0.0117396635,0.2261900290,-0.1415115059,9.6323807400
1520617232731760654,-0.0881842352,-0.0485983343,-0.0275597657,0.2694824666,-0.1906796351,9.6238722932
1520617232736775654,-0.0763616406,-0.0316555259,-0.0415211493,0.2803055761,-0.1846847759,9.5784374868
1520617232741791654,-0.0632840064,-0.0167562875,-0.0538771528,0.2574567895,-0.1475096432,9.5925693608
1520617232746806654,-0.0517136398,-0.0024447794,-0.0646115267,0.2779004406,-0.1666974822,9.6016862359
1520617232751822654,-0.0396401542,0.0098163073,-0.0713042073,0.3079646335,-0.1882843513,9.5770096346
1520617232756837654,-0.0328351896,0.0281929448,-0.0773993100,0.3596750451,-0.2014789234,9.6439235292
1520617232761852654,-0.0245214717,0.0445180979,-0.0789134945,0.3692955868,-0.2422504470,9.6229510551
1520617232766868654,-0.0169695263,0.0547224238,-0.0799318718,0.3368262586,-0.2854169735,9.6465520669
1520617232771883654,-0.0101772365,0.0623112778,-0.0836743157,0.3729032900,-0.2998094683,9.6624849627
1520617232776899654,-0.0028791461,0.0690116066,-0.0820134443,0.3608776128,-0.3309861828,9.6765781435
1520617232781915654,0.0044195167,0.0762954328,-0.0806186727,0.3825238317,-0.3213947452,9.6589259385
1520617232786930654,0.0112169031,0.0850381701,-0.0800234898,0.3620801805,-0.2914146424,9.6253935163
1520617232791944654,0.0175131423,0.0943612942,-0.0786112897,0.3656878837,-0.3273891361,9.6405013527
1520617232796961654,0.0195371681,0.1030977902,-0.0763839638,0.3151800397,-0.3441731683,9.6642522149
1520617232801975654,0.0245791517,0.1121202963,-0.0717251024,0.3043569303,-0.3513671679,9.6585538567
1520617232806991654,0.0301172683,0.1173593711,-0.0687193499,0.2887235500,-0.3717513375,9.6610501891
1520617232812007654,0.0338922902,0.1199767528,-0.0662714299,0.3103697689,-0.3813461468,9.6271466781
1520617232817022654,0.0354074692,0.1234652167,-0.0630010025,0.2839132792,-0.3861406480,9.6448410260
1520617232822037654,0.0371814233,0.1313194479,-0.0578038742,0.2706850343,-0.3825421965,9.6368312659
1520617232827053654,0.0346775382,0.1365568290,-0.0553242784,0.2538490864,-0.3501640938,9.6671793074
1520617232832068654,0.0336772709,0.1403451624,-0.0555640573,0.2851158469,-0.3897381629,9.7029400267
1520617232837085654,0.0341812759,0.1412187845,-0.0552877755,0.2249874613,-0.3741446544,9.6628350397
1520617232842100654,0.0324175698,0.1397699138,-0.0585421747,0.1877078622,-0.3609512063,9.6608607458
1520617232847115654,0.0281401737,0.1386150853,-0.0631424129,0.1047306900,-0.3729361480,9.6186807618
1520617232852131654,0.0268767404,0.1380522201,-0.0707198106,0.0951101483,-0.3813293817,9.6362147469
1520617232857146654,0.0218506032,0.1436120520,-0.0801373438,0.1432128568,-0.3813331281,9.6520165600
1520617232862162654,0.0210932881,0.1459646858,-0.0882345359,0.1744796173,-0.3753398611,9.6691385412
1520617232867177654,0.0205859468,0.1453948316,-0.0931078747,0.2009361070,-0.3993247301,9.6956337277
1520617232872191654,0.0175634570,0.1416114788,-0.0952955413,0.2346080030,-0.3933316505,9.6825165559
1520617232877209654,0.0162999218,0.1357803822,-0.0942554858,0.2526465187,-0.3861382128,9.6404967817
1520617232882223654,0.0160414054,0.1296575665,-0.0929489744,0.2706850343,-0.4329060942,9.5915567640
1520617232887239654,0.0170394695,0.1229495603,-0.0905670592,0.3019517949,-0.4904672697,9.5959571366
1520617232892254654,0.0200546908,0.1179760803,-0.0827646214,0.3404339617,-0.4952668285,9.6199922752
1520617232897270654,0.0192942707,0.1086310840,-0.0752590748,0.3163826074,-0.4796761298,9.6039411595
1520617232902284654,0.0233085715,0.0989951170,-0.0672235273,0.3127749043,-0.5036586573,9.5795946385
1520617232907301654,0.0258189096,0.0931509286,-0.0607795548,0.3248005814,-0.5528243513,9.4807432947
1520617232912316654,0.0310923155,0.0911169467,-0.0621576470,0.2297977321,-0.5947868670,9.4189531475
1520617232917331654,0.0361116588,0.0899701316,-0.0683984295,0.1420102891,-0.5959791702,9.4128359222
1520617232922345654,0.0433917311,0.0908762776,-0.0792271310,0.2189746227,-0.5168418965,9.4375767892
1520617232927362654,0.0524260142,0.0891650227,-0.0917023828,0.3103697689,-0.4377057467,9.4563664758
1520617232932378654,0.0629699800,0.0880334854,-0.1028232592,0.3608776128,-0.3249904806,9.4801699685
1520617232937394654,0.0735120090,0.0851521841,-0.1134163824,0.3704981545,-0.2530428045,9.5032490468
1520617232942409654,0.0878221993,0.0808132516,-0.1232159842,0.3620801805,-0.2338559021,9.5323658716
1520617232947424654,0.1036465651,0.0823076995,-0.1348677458,0.3272057169,-0.2350523264,9.4676264262
1520617232952438654,0.1202216596,0.0814713665,-0.1465386923,0.3861315348,-0.2254637924,9.5658257598
1520617232957455654,0.1415790767,0.0823677290,-0.1517120666,0.4606907330,-0.1870971057,9.5871433626
1520617232962470654,0.1626884449,0.0835459080,-0.1533656544,0.4691087070,-0.0935648083,9.5858080748
1520617232967485654,0.1860595849,0.0826758117,-0.1515219076,0.5244268218,-0.0336120955,9.5875354631
1520617232972500654,0.2084224913,0.0785957213,-0.1480774725,0.4895523581,-0.0599904687,9.6250892418
1520617232977517654,0.2300355431,0.0753800195,-0.1411078714,0.5448704729,-0.0372111090,9.6652036301
1520617232982532654,0.2531536632,0.0712958538,-0.1360415611,0.5184139832,-0.0144253804,9.6468446206
1520617232987548654,0.2740141828,0.0692461232,-0.1293322133,0.4570830299,0.0263501706,9.7055090187
1520617232992563654,0.2948709663,0.0657452973,-0.1247983481,0.4113854568,-0.0599843808,9.6514172374
1520617232997579654,0.3157296042,0.0660433968,-0.1242937713,0.4510701913,-0.0851694204,9.5975969048
1520617233002593654,0.3368350599,0.0654783676,-0.1278545189,0.5087934415,-0.0372082992,9.5342325150
1520617233007609654,0.3602029538,0.0657898350,-0.1319538895,0.5893654783,0.0095519021,9.5345648159
1520617233012624654,0.3818065653,0.0626054557,-0.1366177619,0.6470887285,0.0491190404,9.5513965443
1520617233017641654,0.4018985536,0.0556281162,-0.1396844586,0.6555067025,0.0802960358,9.5780135171
1520617233022654654,0.4174743255,0.0506741276,-0.1373162749,0.5965808846,0.0431272720,9.6483519516
1520617233027671654,0.4345561772,0.0454337158,-0.1365763899,0.5773398012,0.0287390855,9.6624989920
1520617233032687654,0.4503827266,0.0425304438,-0.1382512997,0.5496807438,0.0215463971,9.7278552858
1520617233037702654,0.4619464715,0.0436924981,-0.1352878718,0.5352499312,0.0275432232,9.7640163624
1520617233042718654,0.4737623464,0.0436811000,-0.1293577980,0.5256293895,0.0287431129,9.7908381444
1520617233047733654,0.4785397410,0.0416250682,-0.1226185800,0.4594881653,-0.0132216507,9.7845499857
1520617233052748654,0.4780383194,0.0381085894,-0.1153395844,0.4883497904,0.0083606291,9.7621672811
1520617233057764654,0.4813072193,0.0363469935,-0.1099480724,0.4943626290,0.0695163224,9.7783191349
1520617233062779654,0.4750263676,0.0342902718,-0.1045410480,0.4763241133,0.1714446633,9.8527725299
1520617233067794654,0.4687408076,0.0284440944,-0.0986218319,0.3945495088,0.1954338406,9.9209494363
1520617233072809654,0.4574308587,0.0252249645,-0.0951081866,0.3608776128,0.2326098163,9.9839967019
1520617233077825654,0.4421037864,0.0269679943,-0.0953369239,0.3272057169,0.2649892302,10.1098044184
1520617233082841654,0.4257665516,0.0266782229,-0.0982848148,0.4029674828,0.3117498061,10.2136143515
1520617233087857654,0.4036509805,0.0263810880,-0.0993281498,0.4570830299,0.3800965955,10.2839117528
1520617233092872654,0.3832943679,0.0254996879,-0.0995675604,0.5472756083,0.4616311198,10.3259536848
1520617233097887654,0.3609181203,0.0158672233,-0.0966233790,0.5568961500,0.4892106003,10.3223467177
1520617233102902654,0.3370278698,-0.0007699873,-0.0896715628,0.5929731814,0.4604284203,10.3348072137
1520617233107919654,0.3118816936,-0.0182876711,-0.0805597152,0.6326579159,0.4196545552,10.3240014087
1520617233112934654,0.2814591241,-0.0343468578,-0.0727796804,0.5677192594,0.4244561745,10.2839537660
1520617233117950654,0.2497844592,-0.0474941482,-0.0644339893,0.5857577751,0.3788874335,10.2931197767
1520617233122964654,0.2218774262,-0.0629754087,-0.0544898084,0.5520858792,0.3609029496,10.2109528376
1520617233127980654,0.1904579374,-0.0711595942,-0.0496238883,0.4979703321,0.3237338112,10.1685164884
1520617233132995654,0.1590447409,-0.0743887858,-0.0452612674,0.4799318164,0.2901592842,10.2128862760
1520617233138011654,0.1286322586,-0.0784808107,-0.0449653712,0.3476493680,0.2470005316,10.2130537845
1520617233143026654,0.0944519719,-0.0790675001,-0.0484234397,0.3741058577,0.2398036285,10.1895604102
1520617233148042654,0.0612790720,-0.0811245586,-0.0467541184,0.5316422281,0.2709690101,10.2228609636
1520617233153057654,0.0293626623,-0.0846446032,-0.0426633332,0.5196165509,0.3165372828,10.3310129670
1520617233158073654,-0.0025533084,-0.0881661047,-0.0380314561,0.4967677644,0.3609072580,10.3741914238
1520617233163087654,-0.0372343149,-0.0925642997,-0.0328600225,0.4883497904,0.3309294030,10.4091669113
1520617233168103654,-0.0683877641,-0.0890893634,-0.0292583752,0.4342342433,0.3609121283,10.4852037624
1520617233173118654,-0.1033029490,-0.0786168479,-0.0277607401,0.3861315348,0.3813012619,10.4368420398
1520617233178135654,-0.1357061532,-0.0672619100,-0.0289665620,0.3741058577,0.4064841474,10.4020702156
1520617233183151654,-0.1638408409,-0.0585277590,-0.0302003259,0.4161957276,0.4136757118,10.3388977491
1520617233188166654,-0.1912232591,-0.0506660094,-0.0319832510,0.4967677644,0.4232625600,10.3055641249
1520617233193181654,-0.2178614132,-0.0489186689,-0.0354375365,0.5520858792,0.4688255877,10.2852248102
1520617233198196654,-0.2419827646,-0.0492318885,-0.0307956739,0.5725295303,0.5000016465,10.3349676114
1520617233203211654,-0.2681106332,-0.0460463677,-0.0272055841,0.5641115563,0.4700237916,10.3408895001
1520617233208227654,-0.2944927919,-0.0448999086,-0.0239011350,0.5412627698,0.4448436222,10.3330014446
1520617233213243654,-0.3163466006,-0.0402557914,-0.0203078641,0.5039831707,0.4412491044,10.2961792028
1520617233218258654,-0.3397009808,-0.0280260692,-0.0204416352,0.4991728998,0.4232623727,10.2451092291
1520617233223273654,-0.3595305794,-0.0114263860,-0.0197369564,0.4979703321,0.4508426961,10.2334725999
1520617233228289654,-0.3788560004,0.0048755537,-0.0166005210,0.4763241133,0.4280607139,10.1907061820
1520617233233305654,-0.3944216930,0.0188697470,-0.0216052481,0.5051857384,0.4004782363,10.1358313896
1520617233238321654,-0.4074749774,0.0293544703,-0.0215009474,0.5244268218,0.3692990868,10.1112694885
1520617233243335654,-0.4157573674,0.0372193319,-0.0216960682,0.5244268218,0.2685712912,10.0579090911
1520617233248351654,-0.4227812794,0.0480050870,-0.0243062047,0.4919574935,0.1522571989,9.9746641888
1520617233253366654,-0.4265323202,0.0643335270,-0.0287739913,0.4294239725,0.0923050481,9.8858462342
1520617233258382654,-0.4292748568,0.0865053484,-0.0388806469,0.3993597796,0.0479391939,9.7908863220
1520617233263397654,-0.4259872761,0.1083903336,-0.0498123647,0.3789161285,-0.0072196733,9.7458154833
1520617233268413654,-0.4211872058,0.1296749296,-0.0539876815,0.4390445142,-0.0443977095,9.7150507372
1520617233273427654,-0.4156396998,0.1486396713,-0.0622403717,0.4282214047,-0.1235401345,9.7349897063
1520617233278444654,-0.4048202855,0.1638192101,-0.0708023090,0.4679061393,-0.1499243146,9.7032512782
1520617233283459654,-0.3914887297,0.1743193702,-0.0726408355,0.5424653375,-0.1103584875,9.7175948479
1520617233288473654,-0.3738978078,0.1757897406,-0.0750973038,0.6615195411,-0.0336227727,9.6721997393
1520617233293489654,-0.3575666496,0.1696603113,-0.0689517700,0.7156350881,0.0047455061,9.7099863434
1520617233298506654,-0.3387344251,0.1550831720,-0.0634164647,0.7469018487,0.0179336156,9.7445334678
1520617233303519654,-0.3183931767,0.1410879357,-0.0573384218,0.7745609061,-0.0024539258,9.7698512973
1520617233308536654,-0.2897565657,0.1265022529,-0.0472220384,0.7877891509,0.0275235546,9.7592340126
1520617233313550654,-0.2668971070,0.1113198816,-0.0327706323,0.7601300935,0.0730930448,9.7338916270
1520617233318567654,-0.2387685548,0.0906054572,-0.0191829037,0.6699375151,-0.0024457773,9.7755182130
1520617233323581654,-0.2113906373,0.0745630879,-0.0093458481,0.6687349473,-0.0360216155,9.7499954926
1520617233328597654,-0.1842557935,0.0637618995,0.0018844193,0.6975965724,-0.0252315996,9.6125710606
1520617233333614654,-0.1566171604,0.0552985401,0.0106966248,0.7036094110,0.0071447236,9.4799965524
1520617233338629654,-0.1264569610,0.0526616705,0.0203602625,0.5653141240,-0.0528015267,9.4988332601
1520617233343644654,-0.0973069712,0.0468213626,0.0291896755,0.5136037124,-0.1199493630,9.4668620298
1520617233348660654,-0.0681608508,0.0389450051,0.0366507974,0.4691087070,-0.1942926039,9.4394761610
1520617233353674654,-0.0375005080,0.0380726651,0.0403748304,0.4258162693,-0.2410557086,9.2842158574
1520617233358691654,-0.0050636510,0.0500219334,0.0441934121,0.4017649151,-0.2074779036,9.0833663130
1520617233363706654,0.0303962800,0.0707284877,0.0426621678,0.3861315348,-0.2074766860,8.8940890142
1520617233368721654,0.0663609256,0.0949405943,0.0379101164,0.2935338209,-0.2674264954,8.9589666880
1520617233373736654,0.1040827734,0.1185742633,0.0317976222,0.2406208415,-0.3345742380,9.0071950956
1520617233378752654,0.1400307926,0.1320116983,0.0245284035,0.3115723366,-0.3945367851,9.0890751850
1520617233383767654,0.1779782919,0.1375832672,0.0169248818,0.3416365294,-0.3489717905,9.1700882005
1520617233388782654,0.2189367079,0.1376102419,0.0127906175,0.4534753267,-0.3154045691,9.0829682361
1520617233393799654,0.2553686596,0.1332552069,0.0121485045,0.5063883061,-0.2758370561,9.0800903375
1520617233398814654,0.2930540240,0.1259839052,0.0125640107,0.4907549258,-0.2830306811,9.1162759819
1520617233403829654,0.3322506509,0.1189943807,0.0167665822,0.5280345249,-0.2986224101,9.2065755549
1520617233408845654,0.3649111286,0.1087905107,0.0233917476,0.5436679052,-0.3058184702,9.2401325799
1520617233413860654,0.3958098799,0.0985946927,0.0267736292,0.5172114155,-0.2530542310,9.2473115040
1520617233418876654,0.4272117072,0.0866412948,0.0336583356,0.5605038532,-0.1907023008,9.3467736964
1520617233423891654,0.4568472723,0.0697351276,0.0399674248,0.6531015671,-0.0719946107,9.5444832586
1520617233428907654,0.4812024687,0.0455196983,0.0546176609,0.6843683276,-0.0012477608,9.6824050667
1520617233433922654,0.4997752829,0.0189687431,0.0700724846,0.6903811662,0.0874881622,9.7845286782
1520617233438938654,0.5163357698,-0.0093327639,0.0860587953,0.7517121195,0.1030722110,9.7827543750
1520617233443953654,0.5273716030,-0.0329662717,0.0991149385,0.7360787393,0.1438442030,9.7979746546
1520617233448968654,0.5346404196,-0.0539751534,0.1108453608,0.6891785985,0.2193937024,9.8018439153
1520617233453983654,0.5368877916,-0.0714886615,0.1223412487,0.7192427913,0.2589629949,9.8142962842
1520617233458999654,0.5378860635,-0.0825878316,0.1322651027,0.6506964316,0.2529726314,9.8765629487
1520617233464014654,0.5323596297,-0.0866948761,0.1417133538,0.5797449366,0.3153334594,9.8888141809
1520617233469030654,0.5248250557,-0.0867123984,0.1471382734,0.5520858792,0.3752926347,9.9436456961
1520617233474045654,0.5132612166,-0.0902157270,0.1479447033,0.4558804621,0.3405250552,9.9539131631
1520617233479062654,0.4989397356,-0.0881809188,0.1477163222,0.3368262586,0.2865730085,9.9713945993
1520617233484077654,0.4861289604,-0.0805939169,0.1418459156,0.2514439509,0.2398131819,9.9350826560
1520617233489092654,0.4738245700,-0.0689215072,0.1338413316,0.2237848935,0.2470101786,9.8400490520
1520617233494107654,0.4610230822,-0.0528770696,0.1253299355,0.2754953052,0.2554001342,9.8209432459
1520617233499123654,0.4479656775,-0.0397443905,0.1159851376,0.3392313940,0.2601917319,9.8075346171
1520617233504139654,0.4366691678,-0.0254462125,0.1069165109,0.3849289671,0.2925649642,9.8035718209
1520617233509153654,0.4218518715,-0.0158239486,0.1024181291,0.4282214047,0.3189426818,9.7949897058
1520617233514170654,0.4102948147,-0.0117396246,0.0989536249,0.4065751859,0.3273383506,9.8544615531
1520617233519185654,0.3979761227,-0.0117276950,0.0927539388,0.3813212639,0.3189463345,9.9569842126
1520617233524200654,0.3811249837,-0.0201757016,0.0894741890,0.4101828891,0.3573165802,10.0531238206
1520617233529217654,0.3647764385,-0.0300869899,0.0886173034,0.4811343841,0.3860904245,10.0675130295
1520617233534231654,0.3449132694,-0.0388406743,0.0902107574,0.5316422281,0.4268572651,10.0204959014
1520617233539246654,0.3227977767,-0.0426504490,0.0950927551,0.5136037124,0.4844174104,9.9636702952
1520617233544262654,0.3021886343,-0.0441132597,0.0943082733,0.5027806029,0.4892148150,9.9521495239
1520617233549278654,0.2805776838,-0.0432461164,0.0938139889,0.4751215456,0.5599662541,9.9953490754
1520617233554292654,0.2599749630,-0.0406324574,0.0941428139,0.5099960092,0.6427042272,10.0774411651
1520617233559308654,0.2383658550,-0.0403568244,0.0968906341,0.5328447958,0.6714818178,10.0795149928
1520617233564324654,0.2170047489,-0.0415336450,0.0980035969,0.5376550666,0.7314384644,10.0724368419
1520617233569340654,0.1966439532,-0.0467916404,0.0998952072,0.4895523581,0.7530267384,10.0879918675
1520617233574354654,0.1750271927,-0.0511737892,0.1009841827,0.4715138424,0.7698161092,10.1776361571
1520617233579370654,0.1554245157,-0.0538112138,0.1037060383,0.5075908738,0.7638175973,10.2028580191
1520617233584385654,0.1358217957,-0.0561557970,0.1058890252,0.5051857384,0.7638177846,10.1598821029
1520617233589401654,0.1124515260,-0.0582155715,0.1099750573,0.5244268218,0.7398334776,10.1620424967
1520617233594417654,0.0898415744,-0.0561985810,0.1151729960,0.5364524989,0.7242437155,10.1352113365
1520617233599431654,0.0674788327,-0.0562168131,0.1187316310,0.4967677644,0.6834760319,10.1553938082
1520617233604446654,0.0421030964,-0.0559521265,0.1250035488,0.5316422281,0.6822741753,10.1201912122
1520617233609463654,0.0210003222,-0.0542252014,0.1299259182,0.4811343841,0.6630918623,10.0393514572
1520617233614478654,0.0004019923,-0.0516261111,0.1356656611,0.5268319572,0.6726814266,10.0563294697
1520617233619492654,-0.0224606655,-0.0504826442,0.1405868513,0.5160088478,0.7230461673,10.0749800062
1520617233624509654,-0.0425532772,-0.0467229178,0.1482283744,0.4919574935,0.7614205340,10.0891224160
1520617233629525654,-0.0596352230,-0.0438237803,0.1512583473,0.4739189778,0.7554262368,10.1032495659
1520617233634540654,-0.0772223578,-0.0412089398,0.1515815716,0.4691087070,0.7806085604,10.0986232542
1520617233639556654,-0.0945620593,-0.0391665720,0.1481122404,0.4667035716,0.8129855391,10.0381836066
1520617233644571654,-0.1108930058,-0.0359648281,0.1470848478,0.4775266810,0.8141838366,10.0415635236
1520617233649586654,-0.1232058526,-0.0339234048,0.1446883658,0.4510701913,0.7914022291,10.0255732369
1520617233654601654,-0.1355121875,-0.0269277162,0.1420591303,0.4342342433,0.7686198723,9.9618414077
1520617233659617654,-0.1455558176,-0.0178856223,0.1372768888,0.4306265402,0.7074639916,9.8829103702
1520617233664633654,-0.1550966266,-0.0073805814,0.1303404620,0.3861315348,0.6654975422,9.8857086721
1520617233669647654,-0.1656369973,0.0080812448,0.1220909651,0.3356236908,0.5755659442,9.8409643707
1520617233674664654,-0.1749278246,0.0185907547,0.1135307963,0.3115723366,0.5479875877,9.7935774645
1520617233679679654,-0.1847189170,0.0311412163,0.1044460307,0.3139774720,0.4976235026,9.8063867502
1520617233684695654,-0.1952634708,0.0422264471,0.0983275547,0.3765109931,0.5204023003,9.7825129907
1520617233689710654,-0.2015365247,0.0498028971,0.0973148394,0.3837263994,0.5371897043,9.8300742917
1520617233694726654,-0.2063042084,0.0544609936,0.0981709142,0.4053726182,0.5587725460,9.8158968252
1520617233699740654,-0.2153443682,0.0588260318,0.0990327002,0.4691087070,0.6271185862,9.8605334190
1520617233704755654,-0.2218739194,0.0599802689,0.1023002781,0.4546778944,0.6355136930,9.8490442548
1520617233709772654,-0.2241297596,0.0634723550,0.1036838852,0.4811343841,0.6714858452,9.8231844964
1520617233714788654,-0.2253808396,0.0684297703,0.1021007358,0.4739189778,0.7086597603,9.8836499628
1520617233719802654,-0.2309128482,0.0649266193,0.1037076021,0.5220216864,0.6762792225,9.8483490141
1520617233724818654,-0.2362041077,0.0570680960,0.0995991916,0.4847420873,0.6187233856,9.8638758705
1520617233729834654,-0.2394800996,0.0503649719,0.0995541280,0.4390445142,0.5539733618,9.8771673905
1520617233734848654,-0.2442690280,0.0413367368,0.0970591670,0.4053726182,0.4892224014,9.8485046775
1520617233739865654,-0.2487970291,0.0369598261,0.0986574971,0.3753084254,0.4496531090,9.7465672242
1520617233744879654,-0.2533317106,0.0302634941,0.0959093082,0.3103697689,0.4304719198,9.6995701045
1520617233749896654,-0.2553466764,0.0270582051,0.0956180422,0.2983440917,0.4556548053,9.6903654473
1520617233754910654,-0.2545938384,0.0253058227,0.0972265789,0.2502413832,0.4364723049,9.6327451613
1520617233759926654,-0.2563499860,0.0261734597,0.0994008824,0.2406208415,0.4076936841,9.6537854571
1520617233764942654,-0.2583580008,0.0279209792,0.0994179547,0.2153669196,0.3933059658,9.6761260305
1520617233769958654,-0.2571037492,0.0267581186,0.0985950910,0.2237848935,0.3417422720,9.7190937030
1520617233774973654,-0.2581169892,0.0232720370,0.0945120925,0.2141643518,0.2901799831,9.7657233832
1520617233779988654,-0.2601392037,0.0186273077,0.0877166095,0.2165694873,0.2422141788,9.8226918004
1520617233785004654,-0.2606536684,0.0142760105,0.0803794575,0.2466336801,0.2266230118,9.8386843907
1520617233790019654,-0.2669557059,0.0040940298,0.0732791243,0.3801186962,0.2158203518,9.8850435557
1520617233795034654,-0.2722621806,-0.0122022615,0.0645069640,0.4306265402,0.2805700009,9.8995966704
1520617233800050654,-0.2770509757,-0.0206455422,0.0612048115,0.4522727590,0.3645081447,9.7935490258
1520617233805064654,-0.2820968366,-0.0346310549,0.0600252543,0.3897392379,0.4136777723,9.8068933293
1520617233810080654,-0.2881416516,-0.0462960833,0.0626529912,0.3416365294,0.4748376803,9.7910318799
1520617233815096654,-0.2941784650,-0.0541825824,0.0688267249,0.1516308308,0.3777221043,9.8754882160
1520617233820111654,-0.3004704427,-0.0626417509,0.0712088365,0.1071358254,0.2590106678,9.9399549852
1520617233825128654,-0.3095312788,-0.0728430253,0.0708772847,0.0025124344,0.2326377269,9.9816740890
1520617233830143654,-0.3178468315,-0.0856497112,0.0643017693,-0.0419825710,0.1666884691,9.9821714897
1520617233835159654,-0.3203702833,-0.0905918494,0.0596693639,-0.0600210867,0.1307156613,9.9730849941
1520617233840174654,-0.3254021484,-0.0923304708,0.0553366255,-0.0828698733,0.0947432281,9.9129109847
1520617233845189654,-0.3289222137,-0.0899840190,0.0491383887,-0.0383748679,0.0599646904,9.8230267240
1520617233850204654,-0.3279115965,-0.0820987606,0.0427034436,0.0241586532,0.1403022284,9.7712053814
1520617233855219654,-0.3241307566,-0.0713051298,0.0387205085,0.0337791949,0.1498946025,9.6130508084
1520617233860235654,-0.3163345024,-0.0642971942,0.0344306598,0.0770716326,0.1678783371,9.5208025139
1520617233865251654,-0.3085381582,-0.0564114627,0.0287947508,0.1287820442,0.1594803268,9.4947402149
1520617233870265654,-0.2992299280,-0.0450263410,0.0223710809,0.1720744819,0.1019182147,9.5466714391
1520617233875281654,-0.2871630874,-0.0383044739,0.0167183453,0.1816950236,0.0851294995,9.6581599890
1520617233880296654,-0.2761043943,-0.0353782839,0.0137440355,0.1828975913,0.0683414399,9.6151653284
1520617233885312654,-0.2630277010,-0.0275006829,0.0118859679,0.1828975913,0.0743371420,9.6604830959
1520617233890329654,-0.2511999394,-0.0158435882,0.0130351389,0.1949232684,0.1223018224,9.6545085520
1520617233895343654,-0.2368528620,-0.0024503134,0.0190628073,0.2382157061,0.1378872761,9.6726662718
1520617233900358654,-0.2230131337,0.0074461501,0.0250647322,0.2177720550,0.1858544853,9.6646834765
1520617233905373654,-0.2056486748,0.0190784589,0.0362138334,0.2297977321,0.2098363571,9.7238123808
1520617233910390654,-0.1910525058,0.0280886809,0.0468069690,0.2466336801,0.2158307480,9.7980198764
1520617233915404654,-0.1764581009,0.0341777733,0.0600833328,0.2141643518,0.2122358556,9.8029879968
1520617233920419654,-0.1628678799,0.0408485124,0.0736365555,0.2827107115,0.2242219212,9.7593097888
1520617233925436654,-0.1475213820,0.0457730905,0.0866320808,0.3296108523,0.2194217068,9.7530472492
1520617233930451654,-0.1329297058,0.0495296498,0.1004317517,0.3861315348,0.2218155856,9.6897389994
1520617233935467654,-0.1145593969,0.0596966887,0.1148144213,0.3548647743,0.2458008292,9.6563177694
1520617233940482654,-0.0989544297,0.0695734453,0.1283883642,0.3079646335,0.1474749672,9.6022493866
1520617233945498654,-0.0841039705,0.0806227289,0.1392671406,0.2887235500,0.1210953765,9.6082731127
1520617233950514654,-0.0697506949,0.0966297233,0.1485613675,0.2081515133,0.0515515071,9.5777472864
1520617233955528654,-0.0574108835,0.1126461280,0.1540716857,0.1335923151,-0.0275859539,9.5309022742
1520617233960545654,-0.0433153088,0.1318939467,0.1501340844,0.1408077214,-0.0659590094,9.5506259099
1520617233965560654,-0.0299693690,0.1520054257,0.1499921950,0.1107435285,-0.0899394764,9.5428069154
1520617233970574654,-0.0198911530,0.1703622185,0.1517368558,0.1071358254,-0.0983331784,9.5823631104
1520617233975591654,-0.0073115178,0.1808555274,0.1523346425,0.1552385339,-0.0947395035,9.6097828550
1520617233980606654,0.0037604969,0.1901768800,0.1550907044,0.2418234092,-0.0803565619,9.6019531952
1520617233985621654,0.0153266999,0.1910380802,0.1615690059,0.2923312532,-0.0335940191,9.5665516599
1520617233990637654,0.0281405095,0.1851972001,0.1682643887,0.2995466595,-0.0299971598,9.5037221480
1520617233995652654,0.0419509365,0.1735312086,0.1741018052,0.3019517949,-0.0551792960,9.5420740446
1520617234000668654,0.0587758950,0.1615771993,0.1791197603,0.2742927375,-0.1139350226,9.6202642034
1520617234005682654,0.0755957960,0.1467129869,0.1827627550,0.2430259770,-0.1606990640,9.5938848282
1520617234010699654,0.0964290022,0.1274846809,0.1844711146,0.2526465187,-0.1571023920,9.6088955511
1520617234015714654,0.1195242545,0.1103049654,0.1832148305,0.2682798989,-0.1571036095,9.5529604756
1520617234020728654,0.1471493584,0.0998376075,0.1787547255,0.2851158469,-0.1583040612,9.4877177127
1520617234025745654,0.1782959900,0.0919948171,0.1740375483,0.1961258361,-0.1822799388,9.4037707650
1520617234030761654,0.2106968812,0.0859161231,0.1636499121,0.1384025859,-0.1882711453,9.3845820072
1520617234035776654,0.2473702994,0.0827646031,0.1489478382,0.1468205599,-0.2134537498,9.3601196048
1520617234040791654,0.2865558198,0.0766900243,0.1380065088,0.1648590756,-0.1882732058,9.3180822905
1520617234045807654,0.3267432346,0.0676998088,0.1278527193,0.1696693465,-0.1534985082,9.2912722485
1520617234050822654,0.3689366374,0.0543345140,0.1195556709,0.1432128568,-0.2254448730,9.2590598894
1520617234055837654,0.4086120847,0.0389358273,0.1085422693,0.1672642110,-0.2398364313,9.3006770027
1520617234060853654,0.4518112944,0.0243981039,0.1029399207,0.1708719142,-0.2026633592,9.3145513654
1520617234065868654,0.4907397883,0.0110249733,0.0970838529,0.1600488048,-0.1487011972,9.3576034170
1520617234070882654,0.5301711856,-0.0029343716,0.0925751349,0.1648590756,-0.0887445506,9.4097946077
1520617234075898654,0.5678426522,-0.0186478118,0.0899501667,0.1347948828,-0.0791490858,9.4623743574
1520617234080913654,0.6060131527,-0.0369835159,0.0873042574,0.1456179922,-0.0000066608,9.6004869660
1520617234085930654,0.6416710491,-0.0594192556,0.0919366312,0.2057463779,0.0743353625,9.6695578514
1520617234090946654,0.6710477921,-0.0818618272,0.0982039485,0.1732770496,0.1127103849,9.6942414921
1520617234095961654,0.6986592450,-0.1069188077,0.1012079744,0.1612513725,0.1235035853,9.7268880494
1520617234100976654,0.7255253363,-0.1258577368,0.1045306311,0.1732770496,0.1342949125,9.6628425573
1520617234105991654,0.7496287752,-0.1409980952,0.1035585875,0.2213797581,0.1798585022,9.6483841927
1520617234111007654,0.7704676189,-0.1538057436,0.1015282125,0.2273925967,0.2242262295,9.6773360007
1520617234116023654,0.7875462167,-0.1607915488,0.1011725754,0.1973284039,0.2697959071,9.6589898889
1520617234121037654,0.8053799458,-0.1657322680,0.0989372784,0.1973284039,0.3033718390,9.6624435793
1520617234126053654,0.8201970384,-0.1694998893,0.0934699237,0.2129617841,0.3525353788,9.6657299025
1520617234131070654,0.8320050098,-0.1694850639,0.0896603451,0.2406208415,0.4532610202,9.6432817266
1520617234136084654,0.8415550749,-0.1668493922,0.0861455208,0.2261900290,0.5623839226,9.6223971862
1520617234141100654,0.8493480751,-0.1615868500,0.0807601500,0.2297977321,0.6199423820,9.6374138142
1520617234146115654,0.8541314719,-0.1522475627,0.0759525948,0.1997335393,0.6019576171,9.6795611630
1520617234151131654,0.8543930775,-0.1402810310,0.0687385354,0.2129617841,0.6307359570,9.7944565947
1520617234156145654,0.8533941941,-0.1280090384,0.0561181148,0.2117592164,0.6810999484,9.8536885292
1520617234161161654,0.8466215025,-0.1137105451,0.0475821788,0.2742927375,0.7554417844,9.9122767089
1520617234166177654,0.8368373963,-0.0994270734,0.0441922156,0.3440416648,0.8213890754,10.0149643139
1520617234171191654,0.8205169643,-0.0886500602,0.0434931691,0.3476493680,0.8333801986,10.0904568624
1520617234176208654,0.8006789643,-0.0775837693,0.0430734256,0.3656878837,0.8489676192,10.1216439719
1520617234181224654,0.7820912093,-0.0717648213,0.0436935167,0.3428390971,0.9197186838,10.0939059220
1520617234186239654,0.7597406169,-0.0604081304,0.0432806636,0.3476493680,0.9976624366,10.1042423903
1520617234191255654,0.7333732892,-0.0467248524,0.0439752463,0.4173982953,1.0839951149,10.1685593661
1520617234196270654,0.7057517097,-0.0318787137,0.0454926927,0.4366393787,1.1787257097,10.1392261085
1520617234201285654,0.6723496849,-0.0176183371,0.0472869735,0.4823369518,1.2518697165,10.1921686086
1520617234206299654,0.6394439654,-0.0083127573,0.0495836201,0.4943626290,1.3370077500,10.2489135887
1520617234211316654,0.6042721616,-0.0004569736,0.0488973470,0.4847420873,1.3454024822,10.2768904987
1520617234216332654,0.5668409580,0.0097319140,0.0471508755,0.5364524989,1.2806448720,10.2834231893
1520617234221346654,0.5289052670,0.0193414778,0.0440481617,0.5208191186,1.3082263193,10.2556570053
1520617234226362654,0.4879528924,0.0289535023,0.0395983192,0.5749346657,1.3453954577,10.2283647173
1520617234231378654,0.4485127056,0.0400150274,0.0381327966,0.5965808846,1.3885628271,10.2525169531
1520617234236393654,0.4053013191,0.0493245832,0.0374725741,0.6170245357,1.3801672519,10.2825418953
1520617234241409654,0.3625950825,0.0606747561,0.0365564338,0.6122142648,1.3597822393,10.3534993755
1520617234246424654,0.3161199398,0.0740704281,0.0329573970,0.6122142648,1.3489899755,10.3779149226
1520617234251440654,0.2678865834,0.0874624972,0.0304438108,0.5785423689,1.3597848618,10.3782321402
1520617234256454654,0.2181449519,0.1011482738,0.0268530645,0.5989860200,1.3465927249,10.4373153586
1520617234261471654,0.1699043349,0.1087104671,0.0251066543,0.6302527805,1.3082177962,10.4509941734
1520617234266486654,0.1216642903,0.1168561578,0.0230941444,0.6615195411,1.2782368505,10.3856390140
1520617234271501654,0.0719197459,0.1249903314,0.0251426232,0.6987991402,1.2902253513,10.3910751836
1520617234276518654,0.0246836970,0.1278718268,0.0303929701,0.6927863016,1.3226026110,10.3562378181
1520617234281532654,-0.0200387913,0.1313378043,0.0353725500,0.7168376559,1.3273972995,10.3385668803
1520617234286548654,-0.0642598698,0.1339298251,0.0403445272,0.6843683276,1.3046161603,10.2807979366
1520617234291564654,-0.1064730628,0.1356528506,0.0436828260,0.6747477859,1.2806341011,10.3076442748
1520617234296579654,-0.1456719480,0.1356251082,0.0483549150,0.6843683276,1.2770359305,10.3133648621
1520617234301595654,-0.1826052271,0.1388049385,0.0525061657,0.7228504944,1.2410587207,10.2549181828
1520617234306610654,-0.2160192681,0.1422753465,0.0574647431,0.7649403644,1.2410554426,10.2579949377
1520617234311626654,-0.2456717419,0.1413830193,0.0599480602,0.7673454998,1.2662372042,10.2498119638
1520617234316641654,-0.2728118430,0.1402010205,0.0621539411,0.7853840155,1.2734306418,10.1787385907
1520617234321655654,-0.2986966848,0.1369747234,0.0662357481,0.7709532029,1.2674360636,10.1486691552
1520617234326671654,-0.3218164477,0.1343322782,0.0703168674,0.7950045572,1.2710316117,10.0787029088
1520617234331687654,-0.3419233061,0.1305291186,0.0730307641,0.7721557707,1.2686351104,10.0963598029
1520617234336703654,-0.3569990874,0.1293452899,0.0776491554,0.7384838747,1.2242695372,10.0839472265
1520617234341719654,-0.3748362470,0.1322485026,0.0790572530,0.7589275258,1.1787006089,10.0779819557
1520617234346734654,-0.3891603704,0.1313650949,0.0804299165,0.7649403644,1.1822975618,10.0570013312
1520617234351749654,-0.3994626541,0.1322359403,0.0801851755,0.7312684684,1.1427285504,10.0318004940
1520617234356764654,-0.4097711829,0.1293224289,0.0785588049,0.7180402236,1.0707811552,9.9773786441
1520617234361780654,-0.4168142384,0.1240732938,0.0790729494,0.7336736038,1.0252126015,9.9412444507
1520617234366795654,-0.4200831539,0.1199809756,0.0833766280,0.7577249581,1.0252107283,9.8410659695
1520617234371810654,-0.4195847904,0.1129704615,0.0898154420,0.7649403644,0.9808419707,9.7806075191
1520617234376825654,-0.4175794689,0.1056706105,0.0957081408,0.7192427913,0.9304816320,9.7334535214
1520617234381842654,-0.4123077448,0.0986663376,0.1005148117,0.6543041348,0.8729279493,9.7271688590
1520617234386857654,-0.4020090327,0.0922460745,0.1055871402,0.6579118379,0.8189663493,9.7074299169
1520617234391872654,-0.3886960518,0.0858313635,0.1090305926,0.6470887285,0.7686032944,9.7226922460
1520617234396888654,-0.3728671346,0.0817494416,0.1122166166,0.6206322388,0.7518173890,9.7450468631
1520617234401903654,-0.3547752066,0.0791275138,0.1145979178,0.7120273850,0.7817887815,9.6709129762
1520617234406919654,-0.3369364711,0.0744628821,0.1180463077,0.6771529213,0.8069734465,9.6782007305
1520617234411934654,-0.3170908616,0.0683472144,0.1195860272,0.6278476451,0.8249643929,9.6914466812
1520617234416950654,-0.2922193186,0.0625263572,0.1205775435,0.6146194003,0.8129740189,9.6683442511
1520617234421964654,-0.2698619949,0.0561232033,0.1210281890,0.6266450774,0.7961851164,9.6787028669
1520617234426981654,-0.2472541211,0.0488445374,0.1220127904,0.6254425097,0.7793972441,9.6671095032
1520617234431995654,-0.2196209255,0.0430335044,0.1197526219,0.6579118379,0.8009792429,9.6168002285
1520617234437012654,-0.1917339730,0.0369217158,0.1210068603,0.6879760307,0.7745958121,9.6235061913
1520617234442027654,-0.1633442934,0.0299315998,0.1238767714,0.6158219680,0.7937876785,9.6253519292
1520617234447043654,-0.1334494162,0.0211944959,0.1264599977,0.5809475043,0.7961886755,9.6175540295
1520617234452058654,-0.1060648809,0.0168381018,0.1250230491,0.5196165509,0.7326390097,9.6286722579
1520617234457073654,-0.0774250786,0.0133643663,0.1206144313,0.4859446550,0.6702863302,9.6151150777
1520617234462088654,-0.0490316511,0.0122157811,0.1183884321,0.5111985769,0.6978645930,9.5950859295
1520617234467104654,-0.0208873662,0.0128161331,0.1159056922,0.5075908738,0.6642889422,9.5835323466
1520617234472118654,0.0039870034,0.0131325618,0.1101802459,0.4655010038,0.6415085522,9.5781535213
1520617234477135654,0.0331326534,0.0099409381,0.1092900143,0.4763241133,0.6606939561,9.5861644740
1520617234482151654,0.0602667640,0.0041180533,0.1113595137,0.4919574935,0.6522987555,9.6545869869
1520617234487165654,0.0836316588,-0.0005363996,0.1118216308,0.4907549258,0.6427057258,9.6929587972
1520617234492181654,0.1064981783,-0.0025707740,0.1131163269,0.4582855976,0.6822798886,9.7188034125
1520617234497196654,0.1271021261,-0.0060665993,0.1157568375,0.4763241133,0.6870750454,9.7500010461
1520617234502226654,0.1461954230,-0.0110170242,0.1173068495,0.5124011447,0.6726825505,9.7670960858
1520617234507227654,0.1627778879,-0.0142193981,0.1186043213,0.5496807438,0.7122512810,9.7597217771
1520617234512244654,0.1783522093,-0.0197539705,0.1201564212,0.5773398012,0.7158465481,9.7850162198
1520617234517258654,0.1936749221,-0.0261657086,0.1227845022,0.5809475043,0.7074522842,9.8512314954
1520617234522273654,0.2067394542,-0.0340534662,0.1321693156,0.5472756083,0.7218445917,9.8840852356
1520617234527290654,0.2182877488,-0.0471823655,0.1398936385,0.5617064209,0.6894666764,9.9316242492
1520617234532305654,0.2260731590,-0.0559441590,0.1484699462,0.5544910146,0.6666835703,9.9479867124
1520617234537321654,0.2333538623,-0.0652845479,0.1554194658,0.5208191186,0.6486990864,9.9599534336
1520617234542336654,0.2388743291,-0.0757926209,0.1629044519,0.5400602021,0.6978623452,9.9527453460
1520617234547351654,0.2378598855,-0.0860067702,0.1685099746,0.5304396603,0.7098544987,9.9888537557
1520617234552366654,0.2371000025,-0.0915484706,0.1703629574,0.5039831707,0.7242462443,10.0146644018
1520617234557381654,0.2398559744,-0.0976664627,0.1703111387,0.4871472227,0.7422346619,10.0113243007
1520617234562397654,0.2355699573,-0.1043539551,0.1643159323,0.4546778944,0.7626225779,10.0488090650
1520617234567414654,0.2302791918,-0.1081163411,0.1540160893,0.4763241133,0.7902011218,10.0950572373
1520617234572427654,0.2217206673,-0.1104136149,0.1402163325,0.5099960092,0.8093847461,10.1028457940
1520617234577444654,0.2154287994,-0.1106775951,0.1291333958,0.4967677644,0.7602210190,10.1204546518
1520617234582459654,0.2063698726,-0.1129823500,0.1180400314,0.5124011447,0.7326395717,10.1389236842
1520617234587475654,0.1963024143,-0.1149837310,0.1023514768,0.5821500720,0.7218418756,10.1312824512
1520617234592490654,0.1839837771,-0.1108742072,0.0894192664,0.6122142648,0.7026532873,10.1705214287
1520617234597505654,0.1709126469,-0.1073550322,0.0791894690,0.6446835931,0.7098456010,10.1841441036
1520617234602520654,0.1585936059,-0.1064638500,0.0711026308,0.6446835931,0.7110447414,10.1957643738
1520617234607536654,0.1425051217,-0.1073304645,0.0659854598,0.6879760307,0.7530112845,10.1546270265
1520617234612552654,0.1256648972,-0.1064483389,0.0606124816,0.6735452182,0.7446184255,10.2093964384
1520617234617567654,0.1085692417,-0.1073087913,0.0530622645,0.7108248173,0.7554077858,10.2183202092
1520617234622582654,0.0922328930,-0.1046745194,0.0463489619,0.6831657599,0.7350245528,10.2348793196
1520617234627599654,0.0751417225,-0.1032082663,0.0404398048,0.7204453590,0.7817881258,10.2309844268
1520617234632614654,0.0567985467,-0.0979523213,0.0337502437,0.7697506352,0.8021696730,10.2537275198
1520617234637629654,0.0394596802,-0.0956200257,0.0308242274,0.7697506352,0.7601997582,10.2270391357
1520617234642644654,0.0188546778,-0.0924133997,0.0273698560,0.7300659007,0.7590037085,10.1960486852
1520617234647660654,-0.0004969512,-0.0903667205,0.0220104374,0.8142456406,0.7170272375,10.1848109625
1520617234652674654,-0.0195975479,-0.0894898515,0.0182649351,0.8659560523,0.7410060186,10.1133934771
1520617234657691654,-0.0396998664,-0.0868687113,0.0158873677,0.8815894325,0.7517970648,10.0899879082
1520617234662707654,-0.0577864351,-0.0833864701,0.0186531077,0.8575380783,0.7709851848,10.0483661175
1520617234667723654,-0.0756190196,-0.0772787559,0.0203562052,0.8815894325,0.7697841712,10.0225660188
1520617234672736654,-0.0901859071,-0.0720439154,0.0220465661,0.8815894325,0.7733815924,9.9865360482
1520617234677752654,-0.1039998155,-0.0650495460,0.0196906769,0.8743740263,0.7589924693,9.9668638634
1520617234682769654,-0.1175587751,-0.0560183001,0.0184320661,0.8479175366,0.7374100022,9.9636559908
1520617234687784654,-0.1301142997,-0.0484443114,0.0174310189,0.8623483491,0.7278157549,9.9298227102
1520617234692799654,-0.1396522586,-0.0394122186,0.0164354864,0.9104510576,0.7290111489,9.9188940430
1520617234697814654,-0.1504407800,-0.0289368073,0.0203232291,0.9621614693,0.7469942279,9.9195353295
1520617234702829654,-0.1584724514,-0.0245823017,0.0252413367,0.9958333653,0.7553855884,9.9261722662
1520617234707845654,-0.1637430464,-0.0222649480,0.0295976569,1.0475437769,0.7877583525,9.8954216338
1520617234712861654,-0.1715228034,-0.0176196878,0.0347880667,1.0403283706,0.7853606336,9.8594677403
1520617234717877654,-0.1793066063,-0.0153025902,0.0388785082,1.0102641778,0.7793672729,9.8841712364
1520617234722891654,-0.1797965881,-0.0100760764,0.0456831046,1.0499489123,0.7553813737,9.9140240991
1520617234727907654,-0.1802923760,-0.0086353762,0.0516471632,1.0956464854,0.7541786742,9.9042833247
1520617234732922654,-0.1840578557,-0.0060158491,0.0522152636,1.1281158137,0.7697649709,9.8702499121
1520617234737938654,-0.1822943182,-0.0019321344,0.0508903903,1.1172927043,0.7673675330,9.8413039974
1520617234742954654,-0.1795243112,0.0024404450,0.0506480567,1.1353312200,0.7721626898,9.8527451838
1520617234747968654,-0.1795144592,0.0085544210,0.0525885628,1.1569774388,0.7481781954,9.8118828411
1520617234752983654,-0.1742296213,0.0123364747,0.0555836665,1.1509646002,0.7182001531,9.8119705999
1520617234758000654,-0.1702080442,0.0143842976,0.0531568475,1.1822313608,0.7253925605,9.8314156996
1520617234763016654,-0.1689462732,0.0172942645,0.0548000201,1.1954596056,0.7613657430,9.8684404704
1520617234768031654,-0.1641662754,0.0199127685,0.0569755273,1.2267263661,0.7745538525,9.8111782224
1520617234773045654,-0.1578886464,0.0155408198,0.0582832424,1.2531828558,0.8033311621,9.8271626624
1520617234778061654,-0.1568880223,0.0138001908,0.0555625781,1.2243212307,0.8309136397,9.8111466736
1520617234783076654,-0.1518624495,0.0105838183,0.0603986158,1.2291315016,0.8105278778,9.7832282772
1520617234788093654,-0.1496058213,0.0062110228,0.0614432526,1.2435623141,0.8237172986,9.7296163319
1520617234793109654,-0.1473449316,0.0027021828,0.0662822012,1.2507777204,0.8261150175,9.6586529817
1520617234798123654,-0.1425721984,-0.0019726676,0.0716486820,1.2784367778,0.8500956718,9.5967667490
1520617234803137654,-0.1370400723,-0.0037384764,0.0789298147,1.2892598872,0.8728784969,9.6233684970
1520617234808155654,-0.1335178507,-0.0043358925,0.0848708442,1.2772342101,0.8524940463,9.5805061001
1520617234813170654,-0.1272382929,-0.0098850342,0.0904984013,1.2664111007,0.8381052041,9.5329775755
1520617234818185654,-0.1224585657,-0.0098999175,0.0967120891,1.2844496164,0.8153201312,9.5328242171
1520617234823199654,-0.1159166221,-0.0072901939,0.1024014259,1.2375494756,0.8009340988,9.4809982684
1520617234828215654,-0.1088731786,-0.0046766313,0.1067370998,1.2291315016,0.7793502268,9.4729662443
1520617234833231654,-0.1040863240,0.0005534069,0.1129908032,1.2086878505,0.7397801851,9.4569338031
1520617234838247654,-0.0950211363,0.0124964326,0.1157706066,1.2050801473,0.7373821852,9.4360526657
1520617234843263654,-0.0877092813,0.0270539456,0.1212791438,1.1834339285,0.7074053605,9.4362925902
1520617234848278654,-0.0783936338,0.0372436635,0.1259389632,1.2002698765,0.6966117855,9.4651928423
1520617234853293654,-0.0758686373,0.0451076597,0.1276175947,1.2315366370,0.7253887205,9.4404554237
1520617234858308654,-0.0710852523,0.0500565115,0.1300814325,1.2375494756,0.7721547287,9.4194327030
1520617234863325654,-0.0665569454,0.0538470110,0.1298313856,1.2772342101,0.7805456209,9.4016060915
1520617234868340654,-0.0625314165,0.0558817221,0.1322743927,1.3024881321,0.7853402157,9.4315713507
1520617234873354654,-0.0585055348,0.0585006591,0.1341807542,1.3085009706,0.7709500623,9.3978246828
1520617234878370654,-0.0532228492,0.0619971557,0.1350092677,1.3048932675,0.7877383092,9.3850598438
1520617234883386654,-0.0494528846,0.0617043343,0.1360822274,1.2724239392,0.7853425572,9.3737567794
1520617234888402654,-0.0459348343,0.0611207583,0.1368828848,1.2808419132,0.8057272888,9.3457635104
1520617234893417654,-0.0446746000,0.0640358243,0.1366322361,1.2423597464,0.8225182518,9.2961495114
1520617234898433654,-0.0406443588,0.0713234696,0.1361392539,1.2098904182,0.8117285168,9.2569631775
1520617234903447654,-0.0351116525,0.0730681154,0.1383066916,1.1978647410,0.8249199981,9.2477702137
1520617234908463654,-0.0293253146,0.0768540081,0.1399481325,1.2676136684,0.8309102679,9.2831119363
1520617234913479654,-0.0258015445,0.0806419285,0.1405115903,1.2183083922,0.8584943377,9.3091321158
1520617234918495654,-0.0235320299,0.0841292309,0.1443217093,1.2110929859,0.8788802869,9.3603168014
1520617234923509654,-0.0220234018,0.0844197493,0.1448622239,1.2014724442,0.8812793170,9.4278124525
1520617234928525654,-0.0210150859,0.0855805822,0.1467630706,1.2171058244,0.8944686441,9.4148638405
1520617234933541654,-0.0217608044,0.0896509290,0.1500421447,1.1665979805,0.8800828927,9.4083966213
1520617234938556654,-0.0217554373,0.0934381994,0.1503415907,1.1401414908,0.9340462723,9.4516008385
1520617234943571654,-0.0255265899,0.0928568673,0.1492619618,1.1317235168,0.9664237193,9.4307326106
1520617234948587654,-0.0262776284,0.0943105808,0.1503566610,1.1377363554,0.9988000425,9.4376153769
1520617234953602654,-0.0292929909,0.0957721494,0.1482090099,1.1497620325,1.0095913697,9.4142449232
1520617234958618654,-0.0353239824,0.0975253780,0.1455280908,1.1377363554,1.0011983233,9.4213430228
1520617234963634654,-0.0403499551,0.0989868874,0.1431136277,1.0956464854,0.9304523164,9.4241459787
1520617234968649654,-0.0461325097,0.0978227270,0.1417627405,1.0860259437,0.8896822913,9.4440358240
1520617234973663654,-0.0524201240,0.0954957452,0.1393217108,1.1341286523,0.8740897194,9.4714742780
1520617234978679654,-0.0594570244,0.0931531711,0.1425635451,1.1894467670,0.8956699387,9.4441854864
1520617234983695654,-0.0664975826,0.0858468619,0.1495552295,1.1653954128,0.9136589182,9.5025092451
1520617234988710654,-0.0752970169,0.0770756567,0.1592445245,1.1629902774,0.9352436332,9.5013494632
1520617234993726654,-0.0830922283,0.0659664847,0.1716196269,1.1678005482,0.9352432585,9.4641140364
1520617234998741654,-0.0936536595,0.0545699442,0.1821038189,1.1858390639,0.9232504494,9.5069494803
1520617235003756654,-0.1014540614,0.0399656147,0.1939111525,1.1738133868,0.9556281774,9.5058728147
1520617235008773654,-0.1079991571,0.0244876240,0.2057094832,1.1617877096,0.9544299736,9.4653159962
1520617235013787654,-0.1150500181,0.0066783601,0.2174909627,1.1196978397,0.9760177793,9.4052731395
1520617235018802654,-0.1195853348,-0.0076260206,0.2265889930,1.1329260845,0.9940038554,9.4039646998
1520617235023818654,-0.1251303787,-0.0254281379,0.2359327590,1.1449517617,0.9999986209,9.3422481730
1520617235028834654,-0.1284085896,-0.0409048487,0.2477250223,1.0896336469,0.9664269974,9.3381707712
1520617235033849654,-0.1309332530,-0.0555020116,0.2576287335,1.0595694540,1.0203906580,9.3628158004
1520617235038865654,-0.1357245769,-0.0735959465,0.2672394222,1.0607720218,0.9976068963,9.4360413819
1520617235043880654,-0.1357406506,-0.0911045132,0.2765751434,1.0715951312,1.0024026150,9.4463906547
1520617235048896654,-0.1400255074,-0.1071622016,0.2875531897,1.1064695949,1.0203870053,9.4820601305
1520617235053911654,-0.1448142399,-0.1249720363,0.2998715605,1.0559617509,1.0024038326,9.5453250565
1520617235058927654,-0.1496022706,-0.1430768976,0.3135404376,1.0631771572,0.9916110069,9.5475896381
1520617235063942654,-0.1538841793,-0.1568027814,0.3242657227,1.0439360738,0.9568374331,9.4978386398
1520617235068958654,-0.1606777119,-0.1693633832,0.3347340215,1.0355180998,0.9880157398,9.4862687329
1520617235073972654,-0.1644526673,-0.1798838402,0.3454828272,1.0078590424,0.9988101578,9.4470145307
1520617235078989654,-0.1704901001,-0.1895244739,0.3538075895,1.0006436361,0.9904167367,9.4296607871
1520617235084004654,-0.1757711274,-0.1968315507,0.3613370986,0.9561486307,0.9988141851,9.4370585525
1520617235089020654,-0.1780301510,-0.2015244549,0.3723981115,0.9332998442,1.0072099476,9.4581913544
1520617235094036654,-0.1802913701,-0.2062100748,0.3807536654,0.9080459222,0.9988179315,9.4166081636
1520617235099050654,-0.1795324673,-0.2059336920,0.3864359521,0.8635509168,1.0168085033,9.4379423018
1520617235104065654,-0.1757582451,-0.2068260364,0.3937270212,0.8154482083,1.0060199859,9.3954217018
1520617235109081654,-0.1750007497,-0.2074230787,0.3991320928,0.6987991402,1.0312110198,9.4406940064
1520617235114097654,-0.1727397228,-0.2088834858,0.4007400522,0.7096222496,1.0875697768,9.4382094140
1520617235119112654,-0.1692252361,-0.2120895225,0.4015207019,0.7372813070,1.0923641843,9.4181790731
1520617235124127654,-0.1614374423,-0.2161760518,0.4052627528,0.7673454998,1.1019549662,9.3876613492
1520617235129143654,-0.1576691987,-0.2196828442,0.4095578093,0.7469018487,1.0839694520,9.3204735259
1520617235134158654,-0.1493756004,-0.2231944203,0.4162793778,0.7517121195,1.0719776732,9.3088169595
1520617235139174654,-0.1420915098,-0.2302044614,0.4235172279,0.7108248173,1.0731799980,9.3138623379
1520617235144191654,-0.1343031044,-0.2354638131,0.4299558455,0.6627221088,1.0312138296,9.2609128452
1520617235149206654,-0.1229964291,-0.2413074692,0.4374656663,0.5617064209,1.0168320120,9.2189107757
1520617235154220654,-0.1109381861,-0.2477285000,0.4430758195,0.4739189778,1.0132414279,9.1697965628
1520617235159236654,-0.0991276273,-0.2488930528,0.4443977207,0.4125880245,1.0084496428,9.1088045684
1520617235164251654,-0.0890730749,-0.2456780574,0.4422391385,0.3320159877,0.9904688117,9.0968227638
1520617235169266654,-0.0777625105,-0.2421682714,0.4389982622,0.2334054352,0.9772859471,9.1198761763
1520617235174281654,-0.0649434005,-0.2363188057,0.4327963654,0.1672642110,0.9856850814,9.1588625195
1520617235179297654,-0.0503664296,-0.2310499630,0.4260456636,0.2165694873,1.0288502966,9.1490433643
1520617235184312654,-0.0372946133,-0.2243269737,0.4201205153,0.1648590756,1.0432440091,9.2262341507
1520617235189328654,-0.0234763807,-0.2234328364,0.4146905968,0.1263769088,1.0768229380,9.2323866908
1520617235194343654,-0.0119190847,-0.2202004963,0.4063066587,0.1059332577,1.1056039004,9.2650976433
1520617235199359654,0.0006439749,-0.2178477434,0.4000785516,0.1107435285,1.1271880534,9.2754890706
1520617235204373654,0.0169739178,-0.2187045709,0.3959833569,0.0554254137,1.1391837660,9.2458000669
1520617235209390654,0.0312909218,-0.2201391277,0.3897230827,0.0229560855,1.1164026268,9.1973282748
1520617235214406654,0.0418370830,-0.2212779493,0.3813076652,0.0325766272,1.1128044562,9.1379688007
1520617235219420654,0.0556503485,-0.2224162194,0.3731567262,-0.0347671647,1.1044157182,9.1188760221
1520617235224436654,0.0699626558,-0.2232497963,0.3601372507,-0.0299568939,1.0648437096,9.0363555693
1520617235229452654,0.0860359878,-0.2237963986,0.3490105525,-0.0564133836,1.0564517871,9.0191891066
1520617235234467654,0.1018531831,-0.2272540308,0.3367799066,-0.0504005450,1.0624470210,9.0098275830
1520617235239484654,0.1141545235,-0.2301353714,0.3264540623,-0.0768570347,1.0564533794,8.9821994860
1520617235244497654,0.1322338865,-0.2353498943,0.3177229740,-0.1105289307,1.0780405295,8.9987761948
1520617235249515654,0.1498117496,-0.2405682562,0.3103455486,-0.0840724410,1.0768393285,9.0264113078
1520617235254528654,0.1633727479,-0.2425815068,0.3024589530,-0.1117314984,1.0900320274,9.0348026691
1520617235259544654,0.1769355026,-0.2446005849,0.2967367245,-0.1742650194,1.0924351785,8.9947339549
1520617235264559654,0.1912528123,-0.2466215528,0.2918247336,-0.1947086706,1.0912376303,8.9798262388
1520617235269576654,0.2048201382,-0.2468996080,0.2888213026,-0.1742650194,1.0588592467,8.9947666964
1520617235274590654,0.2146189108,-0.2445479381,0.2825983295,-0.1670496132,1.0684518081,9.0365242937
1520617235279607654,0.2259286361,-0.2427915583,0.2812379359,-0.2019240768,1.0492682775,9.0508281772
1520617235284622654,0.2357288514,-0.2427862617,0.2806786419,-0.2343934051,1.0432751042,9.0244207495
1520617235289637654,0.2452818999,-0.2410385838,0.2822975203,-0.2548370562,1.0516706793,9.0478544292
1520617235294652654,0.2505712227,-0.2349298245,0.2869336842,-0.2812935459,1.0612658633,9.0062654034
1520617235299668654,0.2586192931,-0.2314358870,0.2891097932,-0.3125603064,1.0660648601,9.0425915201
1520617235304683654,0.2646594349,-0.2267801128,0.2923807120,-0.3570553118,1.0672674659,9.0639420290
1520617235309699654,0.2719573489,-0.2203718970,0.2943099062,-0.4195888329,1.1284284979,9.0505453282
1520617235314715654,0.2807687758,-0.2095915941,0.2959991004,-0.5037685728,1.1764006710,9.0373721811
1520617235319729654,0.2858076466,-0.1988025701,0.2939076529,-0.5085788436,1.2435529093,9.0722178369
1520617235324745654,0.2916017351,-0.1865541427,0.2910142830,-0.5242122239,1.2663377950,9.1351035588
1520617235329760654,0.2963919887,-0.1746033211,0.2902849241,-0.5085788436,1.2807262625,9.1407480807
1520617235334775654,0.3009251412,-0.1649749331,0.2862916964,-0.4869326248,1.3406815978,9.1869646809
1520617235339791654,0.3052043134,-0.1565085394,0.2809373137,-0.5049711405,1.3778563558,9.2010497347
1520617235344807654,0.3089784219,-0.1506684456,0.2769165861,-0.5025660051,1.4078346791,9.1719434922
1520617235349823654,0.3094849479,-0.1430711265,0.2691276219,-0.5410481719,1.4306213442,9.1897279959
1520617235354836654,0.3130118113,-0.1319760115,0.2613597340,-0.5242122239,1.4366157351,9.1628289675
1520617235359852654,0.3150300036,-0.1208785736,0.2525124629,-0.5230096562,1.4857803988,9.2127415096
1520617235364869654,0.3172958449,-0.1118178152,0.2425669799,-0.5133891145,1.4929744921,9.2323973003
1520617235369885654,0.3173025919,-0.1010103642,0.2329095818,-0.5181993853,1.5253516581,9.2289261165
1520617235374899654,0.3165515300,-0.0919464167,0.2213464241,-0.5230096562,1.5349451562,9.2347743018
1520617235379915654,0.3142925849,-0.0837608556,0.2111321269,-0.5145916822,1.5433384835,9.2172520217
1520617235384930654,0.3127877597,-0.0741122491,0.1987631779,-0.4821223540,1.5889032908,9.1971351031
1520617235389946654,0.3097758354,-0.0676862171,0.1925951308,-0.5109839791,1.6092909258,9.1811261303
1520617235394962654,0.3065033759,-0.0670836035,0.1847598134,-0.4833249217,1.6080896312,9.2238574096
1520617235399977654,0.3032277055,-0.0685192247,0.1763678426,-0.5097814114,1.5709183386,9.2636640648
1520617235404991654,0.2991961157,-0.0711192225,0.1674272879,-0.5278199271,1.5661231818,9.2766279015
1520617235410008654,0.2921541305,-0.0702252443,0.1590601026,-0.5386430365,1.5985008162,9.3150524254
1520617235415024654,0.2841119133,-0.0687627310,0.1558396024,-0.5542764167,1.6032985954,9.3349563610
1520617235420038654,0.2788302039,-0.0684573886,0.1498996170,-0.5650995262,1.5901088937,9.3071831143
1520617235425053654,0.2725444009,-0.0666926036,0.1428904303,-0.5951637190,1.5973060778,9.3527923389
1520617235430070654,0.2624925889,-0.0631846305,0.1372543124,-0.6673177818,1.6620652802,9.3766743770
1520617235435085654,0.2542030835,-0.0561742548,0.1297477833,-0.6649126463,1.6692599355,9.3696710872
1520617235440100654,0.2456610521,-0.0482818112,0.1192723852,-0.6420638598,1.6632624538,9.3915352729
1520617235445116654,0.2388770030,-0.0447754719,0.1147123835,-0.6685203495,1.7268189568,9.4498380069
1520617235450132654,0.2318410005,-0.0398035671,0.1069174133,-0.6673177818,1.7747844800,9.4660495436
1520617235455146654,0.2205332667,-0.0357125888,0.1010175293,-0.6793434589,1.8167553315,9.4916928343
1520617235460162654,0.2117374627,-0.0333733036,0.0967229150,-0.6613049432,1.8275461904,9.5937754024
1520617235465178654,0.2041922605,-0.0342336569,0.0905076918,-0.6961794069,1.8539299958,9.5998998433
1520617235470193654,0.1951378147,-0.0356751848,0.0834791851,-0.6805460266,1.9018943952,9.6438623743
1520617235475208654,0.1868356346,-0.0394525925,0.0783253148,-0.6829511620,1.9450636377,9.6519786959
1520617235480224654,0.1797923675,-0.0417740421,0.0737213182,-0.6829511620,1.9678473058,9.6322000312
1520617235485239654,0.1719909384,-0.0464232212,0.0677482075,-0.7057999486,1.9894336129,9.6916707208
1520617235490255654,0.1674631647,-0.0478739033,0.0647694883,-0.7298513028,1.9918337670,9.7186317942
1520617235495270654,0.1596671420,-0.0504921318,0.0620584900,-0.7214333288,2.0038245156,9.7487539082
1520617235500286654,0.1538823449,-0.0528196451,0.0598870727,-0.7370667091,1.9678515205,9.7745083212
1520617235505300654,0.1475921823,-0.0557235684,0.0552772297,-0.7947899593,1.9546654715,9.8180823529
1520617235510317654,0.1420579862,-0.0562924780,0.0493310418,-0.7671309019,1.9774469854,9.8503309499
1520617235515332654,0.1350169184,-0.0571577335,0.0450087064,-0.8308669907,1.9858459323,9.8590781402
1520617235520347654,0.1272213387,-0.0583139404,0.0404150023,-0.8597286158,2.0062335673,9.8860684937
1520617235525363654,0.1199287525,-0.0591785658,0.0358225878,-0.8982107826,2.0589987431,9.8863916046
1520617235530378654,0.1108714880,-0.0638304225,0.0306634484,-0.9487186266,2.0578035364,9.8706143709
1520617235535394654,0.1030747204,-0.0658607829,0.0260630750,-0.9775802517,2.0745937502,9.8464738985
1520617235540409654,0.0947710505,-0.0684624545,0.0171304546,-0.9727699808,2.0745933755,9.8638592376
1520617235545424654,0.0877317900,-0.0666994217,0.0106637598,-0.9499211943,2.0278251195,9.8125481118
1520617235550440654,0.0809400021,-0.0672651815,0.0033671760,-0.9944161997,1.9810621084,9.8478911217
1520617235555455654,0.0726361126,-0.0698661246,-0.0058359904,-0.9763776840,1.9642727375,9.8674883638
1520617235560470654,0.0650859001,-0.0724660439,-0.0153111028,-0.9751751163,1.9462855375,9.8779534944
1520617235565486654,0.0600468294,-0.0759369470,-0.0256091894,-0.9559340329,1.9199029497,9.8475761962
1520617235570500654,0.0534994796,-0.0805776210,-0.0345606385,-0.9222621369,1.9402857144,9.8251478407
1520617235575518654,0.0461959006,-0.0872597390,-0.0429851573,-0.9102364598,1.9366873565,9.8389800256
1520617235580533654,0.0398900368,-0.0997706106,-0.0509149129,-0.8970082149,1.9163009390,9.8911676267
1520617235585548654,0.0320753294,-0.1111077936,-0.0620795265,-0.9222621369,1.9103072038,9.9146621587
1520617235590564654,0.0265271844,-0.1227529574,-0.0667574622,-0.8861851055,1.9007112706,9.8806181870
1520617235595580654,0.0212196513,-0.1408019264,-0.0739196856,-0.9246672723,1.8983159869,9.8961029589
1520617235600594654,0.0174277402,-0.1539004099,-0.0796941874,-0.9643520069,1.8503534607,9.9186167345
1520617235605609654,0.0108688173,-0.1678690310,-0.0873640458,-0.8705517252,1.8263633468,9.9142406950
1520617235610626654,0.0048164477,-0.1803870884,-0.0925888091,-0.9222621369,1.8515493230,9.9123951684
1520617235615641654,0.0000254493,-0.1917500419,-0.0937488253,-0.9451109234,1.8371614175,9.8800915658
1520617235620655654,-0.0037598638,-0.2004799428,-0.0986783431,-0.9571366006,1.8395606349,9.8558012547
1520617235625671654,-0.0077919907,-0.2068832365,-0.1019663342,-0.8849825378,1.8371567345,9.8574255779
1520617235630687654,-0.0093094161,-0.2129985317,-0.1036334940,-0.8645388867,1.8323585806,9.8374748220
1520617235635703654,-0.0128367500,-0.2194089129,-0.1042169596,-0.8777671315,1.8023811003,9.8504163946
1520617235640718654,-0.0158562524,-0.2226167810,-0.1036947210,-0.9258698400,1.8083805488,9.8903916446
1520617235645733654,-0.0173717882,-0.2281529493,-0.1040047052,-0.8946030795,1.7676073392,9.9412614047
1520617235650750654,-0.0178761030,-0.2299036387,-0.1032054726,-0.8765645638,1.7736016364,9.9434042701
1520617235655764654,-0.0206342351,-0.2269981607,-0.1004726488,-0.8645388867,1.7424230488,9.9665605014
1520617235660780654,-0.0223895908,-0.2255477547,-0.0982938992,-0.8561209127,1.7316301294,9.9885698252
1520617235665796654,-0.0241495607,-0.2255455302,-0.0993728157,-0.8537157773,1.7616084527,9.9675985904
1520617235670810654,-0.0238957097,-0.2235050116,-0.0996282667,-0.8537157773,1.7616084527,9.9861928937
1520617235675825654,-0.0254019580,-0.2205837443,-0.1025792404,-0.8152336104,1.7568088939,10.0079037444
1520617235680842654,-0.0269073242,-0.2162019123,-0.1068718281,-0.8188413136,1.7568091748,10.0242088749
1520617235685858654,-0.0276564652,-0.2112421148,-0.1092675485,-0.8741594284,1.8023808193,10.0177300089
1520617235690873654,-0.0279037064,-0.2045236152,-0.1154385064,-0.8958056472,1.7927893818,10.0946515556
1520617235695889654,-0.0329267622,-0.1960470242,-0.1259159924,-0.8525132095,1.7903877292,10.1476911341
1520617235700904654,-0.0324169353,-0.1855336745,-0.1344943635,-0.8044105010,1.8359513189,10.1634485123
1520617235705918654,-0.0354243236,-0.1741468212,-0.1433300770,-0.7791565791,1.8071699818,10.1957708010
1520617235710935654,-0.0361709006,-0.1627561680,-0.1532521747,-0.7659283342,1.8407448834,10.1828257204
1520617235715949654,-0.0389265471,-0.1499071946,-0.1639710608,-0.7346615737,1.8203570611,10.2174055863
1520617235720963654,-0.0391725965,-0.1408510629,-0.1725591471,-0.6625075109,1.8095591777,10.2236866707
1520617235725981654,-0.0419300973,-0.1318010148,-0.1792487449,-0.6396587244,1.8107565386,10.2711110074
1520617235730997654,-0.0411673485,-0.1218783485,-0.1848560240,-0.6083919638,1.7819747332,10.3056990587
1520617235736012654,-0.0429225669,-0.1183795096,-0.1859082635,-0.5915560158,1.7939648262,10.3334149494
1520617235741027654,-0.0439213406,-0.1143034338,-0.1847930898,-0.5494661459,1.8035546715,10.3725088122
1520617235746043654,-0.0499463888,-0.1067159588,-0.1898644603,-0.5169968176,1.7627813683,10.3455032223
1520617235751058654,-0.0499381167,-0.1003040423,-0.1903566442,-0.4737043800,1.7028209754,10.3823289137
1520617235756072654,-0.0542031989,-0.0941822704,-0.1919253005,-0.4376273486,1.6476577061,10.4157337263
1520617235761088654,-0.0599729533,-0.0869006502,-0.1915884428,-0.4316145100,1.6296701314,10.4273141807
1520617235766104654,-0.0649925906,-0.0807769883,-0.1939673366,-0.4039554526,1.6500533645,10.3805393274
1520617235771119654,-0.0722774770,-0.0758131948,-0.1987858353,-0.4039554526,1.6680404708,10.3712246357
1520617235776135654,-0.0768014597,-0.0717151875,-0.2063215962,-0.3883220723,1.6728358149,10.3466627696
1520617235781150654,-0.0855900462,-0.0632531851,-0.2119222552,-0.3726886921,1.6536483506,10.3372321616
1520617235786166654,-0.0933814820,-0.0582764768,-0.2216096466,-0.4075631558,1.6368631008,10.3480472746
1520617235791181654,-0.1006674152,-0.0506749255,-0.2320896013,-0.4268042392,1.5900981228,10.3494423037
1520617235796197654,-0.1089601197,-0.0413123491,-0.2474241768,-0.3895246401,1.5685106918,10.3502626390
1520617235801213654,-0.1154854250,-0.0287569654,-0.2578677393,-0.3029397647,1.5589108248,10.2994570396
1520617235806227654,-0.1225144688,-0.0159052951,-0.2702019665,-0.3101551710,1.5409242805,10.2553833398
1520617235811243654,-0.1297982850,-0.0047983883,-0.2839017950,-0.2945217907,1.5121436927,10.2262056394
1520617235816258654,-0.1380851402,0.0080571602,-0.2978569639,-0.2596473271,1.4929547298,10.2375063417
1520617235821272654,-0.1446133466,0.0194513764,-0.3099326941,-0.1886958320,1.5085380294,10.2368005420
1520617235826290654,-0.1486283922,0.0296752115,-0.3198576167,-0.1670496132,1.4989432201,10.1994105991
1520617235831306654,-0.1523902063,0.0401854306,-0.3278869617,-0.1694547486,1.5505064456,10.2179780309
1520617235836321654,-0.1581586357,0.0503896373,-0.3307744239,-0.1393905558,1.5684912105,10.2641536226
1520617235841336654,-0.1646878575,0.0597383343,-0.3407013485,-0.0684390607,1.5684856845,10.2855437594
1520617235846352654,-0.1686988612,0.0708268534,-0.3471025052,-0.0479954096,1.5684840923,10.2992905009
1520617235851367654,-0.1744627978,0.0862847227,-0.3531965026,-0.0251466230,1.5492960660,10.3002489582
1520617235856381654,-0.1804853290,0.0991324163,-0.3639093214,-0.0516031127,1.5840731988,10.2876889751
1520617235861397654,-0.1875142474,0.1096420838,-0.3722031448,-0.0179312168,1.5732783125,10.2757503180
1520617235866413654,-0.1915249806,0.1233639901,-0.3826424822,0.0073227052,1.5397004138,10.2220786314
1520617235871427654,-0.1962875873,0.1382496823,-0.3925304352,-0.0059055396,1.5696799546,10.1838274031
1520617235876444654,-0.2008045250,0.1496417724,-0.4035277156,-0.0143235136,1.5612866273,10.1176753185
1520617235881459654,-0.2028143706,0.1563712377,-0.4140241408,0.0542228460,1.5528873057,10.1112055959
1520617235886474654,-0.2038157318,0.1616266918,-0.4180404468,0.0987178514,1.5684726658,10.0607851173
1520617235891491654,-0.2038113252,0.1674660372,-0.4223247194,0.0963127160,1.6020487850,10.0224250354
1520617235896506654,-0.2035542084,0.1756423848,-0.4287560413,0.1035281222,1.6356241549,9.9665391538
1520617235901522654,-0.1997787356,0.1826487452,-0.4330384224,0.0854896066,1.6488161044,9.9085946692
1520617235906536654,-0.1952451871,0.1925685178,-0.4370294270,0.0518177106,1.6344290418,9.8833692759
1520617235911552654,-0.1897068392,0.2021972997,-0.4410245215,0.0337791949,1.6416252893,9.9184021543
1520617235916568654,-0.1834171000,0.2109565939,-0.4466509608,0.0566279814,1.6284329651,9.9402733561
1520617235921582654,-0.1761237493,0.2185507439,-0.4522881594,0.0927050128,1.6020490660,9.9527315134
1520617235926598654,-0.1688356324,0.2229425778,-0.4590319955,0.1287820442,1.5984488349,9.9663295971
1520617235931613654,-0.1585325019,0.2267520957,-0.4655153326,0.1131486640,1.6128397376,9.9711163066
1520617235936630654,-0.1499889494,0.2293917441,-0.4706515654,0.1359974505,1.6296259239,9.9662289640
1520617235941645654,-0.1396895119,0.2314573254,-0.4787715163,0.1552385339,1.6284252850,9.9555835568
1520617235946660654,-0.1291392618,0.2323538249,-0.4855480969,0.1011229868,1.6452174656,9.9177431631
1520617235951676654,-0.1150721021,0.2329632320,-0.4934156182,0.1203640702,1.6823893202,9.8989253294
1520617235956691654,-0.1025130452,0.2326949810,-0.5002048248,0.1504282631,1.7219586126,9.8672162281
1520617235961706654,-0.0889553087,0.2260093799,-0.5043393473,0.0866921743,1.7147687341,9.7957906869
1520617235966722654,-0.0713758265,0.2187367577,-0.5063214163,0.1119460962,1.6967796609,9.7874274132
1520617235971736654,-0.0527918507,0.2117595559,-0.5096558586,0.1624539402,1.7099662718,9.7671664908
1520617235976753654,-0.0364695723,0.2018545110,-0.5081385052,0.1311871796,1.7099687070,9.7512008069
1520617235981768654,-0.0206475157,0.1936975763,-0.5066068797,0.1095409608,1.6715978993,9.7502867729
1520617235986784654,-0.0033190736,0.1846678073,-0.5053552698,0.1035281222,1.6164379081,9.7492369438
1520617235991799654,0.0122504531,0.1759294620,-0.5043687156,0.0830844711,1.6080455174,9.7145797965
1520617235996814654,0.0275714096,0.1695235513,-0.5039050018,0.0349817626,1.5780707532,9.6964829290
1520617236001830654,0.0461612307,0.1645758432,-0.5034362400,0.0433997366,1.5972563443,9.6917337083
1520617236006845654,0.0599809491,0.1628307658,-0.5026636106,0.0313740595,1.5852658767,9.6418902623
1520617236011861654,0.0722952504,0.1628334048,-0.5018748424,-0.0107158105,1.5732777506,9.6690409436
1520617236016876654,0.0858647246,0.1613774282,-0.5002878855,0.0181458146,1.5408987113,9.6501972911
1520617236021891654,0.0984303207,0.1599166871,-0.4970757863,0.0409946012,1.5552866168,9.6592580146
1520617236026907654,0.1079831497,0.1616650935,-0.4957274538,0.0554254137,1.5576837738,9.6323859043
1520617236031922654,0.1200481320,0.1631245567,-0.4949271034,0.0470074397,1.5492904464,9.6022602823
1520617236036938654,0.1321108757,0.1648841456,-0.4973710807,0.0205509501,1.5229114176,9.5932463673
1520617236041954654,0.1421641029,0.1651765546,-0.4963053429,0.0313740595,1.5049234683,9.5838614103
1520617236046969654,0.1512113822,0.1631294808,-0.4922795181,0.0289689240,1.5133176386,9.5873630669
1520617236051985654,0.1579953960,0.1628429399,-0.4931059804,0.0373868980,1.5217109660,9.5919215219
1520617236057000654,0.1645242376,0.1590567725,-0.4928764695,0.0229560855,1.5265086516,9.5955437371
1520617236062015654,0.1687921346,0.1546818509,-0.4907533829,0.0253612209,1.5408981493,9.6117763103
1520617236067031654,0.1712994892,0.1497256563,-0.4894431131,0.0373868980,1.5193126851,9.6174910276
1520617236072045654,0.1728024444,0.1468153155,-0.4905503278,0.0734639294,1.5229072966,9.6915135810
