#timestamp [ns],w_RS_S_x [rad s^-1],w_RS_S_y [rad s^-1],w_RS_S_z [rad s^-1],a_RS_S_x [m s^-2],a_RS_S_y [m s^-2],a_RS_S_z [m s^-2]
1520435236024924338,-0.0415737244,0.0514164914,-0.0460923499,0.5905680460,-0.1499338679,9.6857873470
1520435236029940338,-0.0365597599,0.0420919704,-0.0453611854,0.5833526397,-0.1403401825,9.7172261094
1520435236034954338,-0.0297836262,0.0342214190,-0.0432694430,0.5833526397,-0.1511324463,9.6626158676
1520435236039969338,-0.0252703698,0.0254758279,-0.0411801695,0.6001885877,-0.1571294597,9.6868628666
1520435236044985338,-0.0195018934,0.0164422583,-0.0401776361,0.5701243949,-0.1571271182,9.6952905007
1520435236049998338,-0.0129760431,0.0106171276,-0.0402342327,0.5593012855,-0.1535288540,9.6826087547
1520435236055014338,-0.0069592552,0.0010081718,-0.0419420712,0.5617064209,-0.1511307605,9.6872315817
1520435236060029338,-0.0026945650,-0.0039415062,-0.0427994356,0.5929731814,-0.1511331956,9.6601979393
1520435236065043338,0.0015767584,-0.0077423999,-0.0374253521,0.6338604837,-0.1511363801,9.6168006410
1520435236070058338,0.0108719532,-0.0106562445,-0.0361121223,0.5953783168,-0.1499342425,9.5939311544
1520435236075073338,0.0186632714,-0.0103639931,-0.0353127299,0.5629089886,-0.1367411690,9.6105043436
1520435236080088338,0.0239462197,-0.0071610663,-0.0336748018,0.5701243949,-0.1247503268,9.6313410110
1520435236085104338,0.0324897644,-0.0074483749,-0.0339634394,0.4907549258,-0.0839733708,9.6797216893
1520435236090118338,0.0367595158,-0.0080243712,-0.0358696411,0.5184139832,-0.0779798229,9.7294188164
1520435236095133338,0.0380093687,-0.0120996202,-0.0372558274,0.5629089886,-0.1451351520,9.7116190530
1520435236100147338,0.0380092825,-0.0115139374,-0.0383335648,0.5965808846,-0.1163584043,9.7101011033
1520435236105162338,0.0400130280,-0.0170523695,-0.0372973536,0.5905680460,-0.1307476211,9.7520108430
1520435236110178338,0.0392508634,-0.0220011028,-0.0392275672,0.5424653375,-0.1427352789,9.7431935870
1520435236115192338,0.0372365602,-0.0237450986,-0.0411309932,0.5220216864,-0.1223482995,9.7596427096
1520435236120207338,0.0322105444,-0.0219907478,-0.0440843250,0.5172114155,-0.1415341716,9.7817889744
1520435236125222338,0.0259233770,-0.0213922294,-0.0508318582,0.5593012855,-0.1811090837,9.8000121888
1520435236130236338,0.0214018486,-0.0190585548,-0.0524289479,0.5436679052,-0.1715147428,9.7908578482
1520435236135251338,0.0161219818,-0.0193447225,-0.0551268287,0.5593012855,-0.1619228369,9.7976691915
1520435236140268338,0.0110977694,-0.0164255621,-0.0578007224,0.5208191186,-0.1451318739,9.7829195112
1520435236145282338,0.0038128359,-0.0126324057,-0.0607342921,0.5472756083,-0.1703158833,9.7989565714
1520435236150296338,-0.0034708666,-0.0082579371,-0.0631223239,0.5941757491,-0.1859083616,9.8171095789
1520435236155312338,-0.0087431239,-0.0035934817,-0.0647002288,0.6194296711,-0.1475378349,9.7343141331
1520435236160327338,-0.0155285843,-0.0024240460,-0.0671136480,0.6134168325,-0.1415416644,9.7390153875
1520435236165341338,-0.0203030346,0.0005003120,-0.0716818296,0.6338604837,-0.1547338013,9.7585857115
1520435236170355338,-0.0238173880,0.0042913030,-0.0732696707,0.6350630514,-0.1499373333,9.7760014884
1520435236175372338,-0.0218054096,0.0069211073,-0.0756883098,0.6567092702,-0.1271553511,9.7420664052
1520435236180386338,-0.0258250853,0.0098428469,-0.0791757080,0.6747477859,-0.1451438624,9.7395840816
1520435236185402338,-0.0270805209,0.0115950324,-0.0807833113,0.6735452182,-0.1499403304,9.7361140321
1520435236190416338,-0.0260751452,0.0133510177,-0.0834772986,0.6987991402,-0.1271586292,9.7242245690
1520435236195431338,-0.0285810062,0.0185949546,-0.0834326159,0.7120273850,-0.1127699744,9.6973524703
1520435236200445338,-0.0280800276,0.0206494118,-0.0888289056,0.7408890101,-0.1151705031,9.6680202888
1520435236205461338,-0.0258116970,0.0247260392,-0.0874492535,0.7781686092,-0.1223682491,9.6316379855
1520435236210476338,-0.0227823034,0.0322915634,-0.0830683196,0.7998148280,-0.1331621988,9.6140056592
1520435236215490338,-0.0164914783,0.0366567800,-0.0800706365,0.8238661823,-0.1019864210,9.5846875564
1520435236220505338,-0.0104502819,0.0416017534,-0.0759858570,0.8419046980,-0.0863990004,9.6019289385
1520435236225519338,-0.0051668554,0.0430469034,-0.0708441707,0.8431072657,-0.1199750259,9.6461114452
1520435236230535338,0.0006200039,0.0447821780,-0.0651601031,0.8455124011,-0.1103820898,9.7018615902
1520435236235550338,0.0079149187,0.0462244735,-0.0586694211,0.8635509168,-0.1151800564,9.6726370928
1520435236240565338,0.0106782296,0.0424237175,-0.0535630831,0.8599432137,-0.1295694605,9.6320112016
1520435236245580338,0.0182179354,0.0403753246,-0.0492639121,0.8467149689,-0.1187761664,9.6681558958
1520435236250594338,0.0222420490,0.0386096535,-0.0422505249,0.8370944272,-0.1223728384,9.7217116662
1520435236255609338,0.0282778313,0.0385967194,-0.0365802624,0.8635509168,-0.1223748989,9.7121570033
1520435236260624338,0.0300378836,0.0365453335,-0.0319998109,0.9044382191,-0.1319712068,9.7222276817
1520435236265638338,0.0338056920,0.0345034765,-0.0306696438,0.9152613285,-0.1319720497,9.7151494724
1520435236270655338,0.0368292324,0.0371125501,-0.0252443188,0.9068433545,-0.1295731132,9.6931483340
1520435236275669338,0.0378357842,0.0353522534,-0.0206602440,0.8599432137,-0.1007900903,9.7516839648
1520435236280685338,0.0393464312,0.0353433746,-0.0171459477,0.8479175366,-0.1211745409,9.7739016293
1520435236285699338,0.0405989226,0.0327228630,-0.0177093809,0.8587406460,-0.1067856988,9.7702958198
1520435236290715338,0.0400898092,0.0263049221,-0.0150518963,0.8695637554,-0.0947951375,9.7701787809
1520435236295729338,0.0431019609,0.0228051187,-0.0134608987,0.8924125419,-0.0876020745,9.7618143611
1520435236300743338,0.0451061925,0.0184358669,-0.0137685246,0.8876022711,-0.1007922445,9.8141705220
1520435236305758338,0.0438425240,0.0120198160,-0.0119212776,0.9200715993,-0.0876042287,9.8173280546
1520435236310774338,0.0423265452,0.0050216260,-0.0103485560,0.9729845787,-0.0840109285,9.8423766911
1520435236315787338,0.0440760438,-0.0028487092,-0.0090591168,1.0126693132,-0.0588320703,9.8524251637
1520435236320804338,0.0418062586,-0.0089693988,-0.0088310552,0.9994410684,-0.0804155677,9.8514128235
1520435236325819338,0.0420510848,-0.0156798857,-0.0056361022,0.9874153913,-0.0420421376,9.8224388563
1520435236330833338,0.0425470295,-0.0241458655,0.0002505046,1.0186821518,-0.0132652025,9.8221064607
1520435236335847338,0.0412856035,-0.0293985636,0.0029182817,1.0331129644,-0.0324525732,9.8057146941
1520435236340863338,0.0425459632,-0.0288255003,0.0067080368,1.0271001258,-0.0600323347,9.8267187054
1520435236345878338,0.0433104526,-0.0247625755,0.0129603154,1.0487463446,-0.0324537908,9.8195082558
1520435236350892338,0.0443178825,-0.0265257859,0.0186265738,1.0487463446,0.0191092474,9.7195135942
1520435236355908338,0.0498563479,-0.0221659637,0.0235194783,1.0655822926,-0.0264593999,9.8146899625
1520435236360922338,0.0579140037,-0.0137279589,0.0292504764,1.0812156729,-0.0144692133,9.8168503913
1520435236365936338,0.0609312950,-0.0163667205,0.0357179695,1.1221029751,0.0071121299,9.8141070834
1520435236370951338,0.0626960989,-0.0149214920,0.0403250981,1.1329260845,-0.0180706619,9.8024048545
1520435236375967338,0.0627029086,-0.0134805948,0.0462882232,1.1509646002,-0.0096780839,9.8673011547
1520435236380982338,0.0669841271,-0.0114603539,0.0541416815,1.1533697357,0.0238976607,9.8428399800
1520435236385997338,0.0672514722,-0.0041960383,0.0617720770,1.0956464854,-0.0048772138,9.8504027506
1520435236391012338,0.0622360023,0.0004503048,0.0669573529,1.0607720218,0.0167100299,9.8832611799
1520435236396027338,0.0602386745,0.0086017280,0.0694582461,1.0403283706,0.0346987285,9.9345769597
1520435236401040338,0.0544700569,0.0141233862,0.0741104996,1.0198847195,0.0610814100,9.9173180609
1520435236406057338,0.0479454297,0.0176028721,0.0795602293,1.0487463446,0.0370963537,9.9147362384
1520435236411072338,0.0396604797,0.0205003566,0.0844676882,0.9801999850,0.0490930966,9.8909867102
1520435236416085338,0.0318773825,0.0239859061,0.0874848385,0.9765922819,0.0814701690,9.9258545718
1520435236421101338,0.0208208887,0.0225159102,0.0907408096,0.9910230944,0.0335034281,9.9222744529
1520435236426116338,0.0193167025,0.0248449388,0.0913024864,0.9705794433,0.0335050204,9.8387990741
1520435236431131338,0.0125406041,0.0294956918,0.0945972081,0.9826051204,0.0490929093,9.8177482310
1520435236436145338,0.0050134200,0.0344295212,0.1008715578,1.0030487715,0.0011257001,9.8234067384
1520435236441162338,0.0030098940,0.0399672248,0.1001058926,0.9489332245,0.0371041275,9.7960069308
1520435236446175338,-0.0027700182,0.0417212803,0.0971539608,0.9248818702,0.0526948262,9.8194687096
1520435236451190338,-0.0090457106,0.0478429930,0.0953184924,0.9381101150,0.0694817619,9.8088642877
1520435236456205338,-0.0143160351,0.0527937339,0.0956366320,0.9717820110,0.0454963309,9.8364513878
1520435236461221338,-0.0185849906,0.0554159778,0.0951234823,0.9838076881,0.0442962539,9.8189033472
1520435236466234338,-0.0248649562,0.0562832994,0.0967650950,0.9777948496,0.0418984414,9.7701541651
1520435236471250338,-0.0306404345,0.0577299448,0.0997629499,0.9609589016,0.0490945951,9.7435817089
1520435236476265338,-0.0336507867,0.0609310794,0.1008751881,0.9669717402,0.0514924077,9.7179536780
1520435236481280338,-0.0321358664,0.0661765917,0.1009124033,0.9296921410,0.0598892941,9.6613632956
1520435236486296338,-0.0298641485,0.0725835668,0.1025803860,0.9188690316,0.0694832604,9.6533242787
1520435236491311338,-0.0270891704,0.0804520320,0.1026352754,0.8779817294,0.0622916023,9.6502428348
1520435236496324338,-0.0260721825,0.0897796444,0.1016223636,0.8358918594,0.0622948804,9.6018424657
1520435236501338338,-0.0230377315,0.1002553718,0.1073782578,0.8839945680,0.0419057468,9.6409070366
1520435236506355338,-0.0222661501,0.1127830166,0.1082840880,0.8707663231,0.0467033388,9.6956518808
1520435236511370338,-0.0219942220,0.1261787905,0.1113618881,0.8563355106,0.0874752371,9.6771582806
1520435236516383338,-0.0214790438,0.1346254966,0.1127781536,0.8298790209,0.0515030849,9.7216123423
1520435236521400338,-0.0222262128,0.1381152597,0.1152411438,0.8455124011,0.0395104631,9.6889318392
1520435236526415338,-0.0269875651,0.1459720301,0.1185565856,0.8827920002,0.0491006830,9.7036674992
1520435236531430338,-0.0320043131,0.1488664239,0.1250812525,0.8599432137,0.0359119179,9.7329563568
1520435236536443338,-0.0330036631,0.1508955237,0.1288863235,0.7938019895,0.0934758095,9.7463275902
1520435236541459338,-0.0329889341,0.1581641114,0.1348939103,0.6855708953,0.1234627495,9.6845960382
1520435236546474338,-0.0364952898,0.1642701532,0.1392758636,0.6362656191,0.1054794832,9.7490114031
1520435236551487338,-0.0364860063,0.1712641103,0.1390586717,0.6663298119,0.0862908950,9.7696560773
1520435236556503338,-0.0372240251,0.1811628761,0.1421116617,0.6506964316,0.0719024275,9.6896343423
1520435236561518338,-0.0394726557,0.1878507224,0.1470368193,0.6783554890,0.0587097286,9.7242423073
1520435236566532338,-0.0417291153,0.1895886739,0.1505714549,0.6362656191,0.0575138663,9.7002481306
1520435236571549338,-0.0419831467,0.1857925638,0.1535190264,0.6386707545,0.0239377471,9.6839874466
1520435236576563338,-0.0382119550,0.1846175761,0.1575613216,0.6735452182,0.0179393289,9.7196803093
1520435236581579338,-0.0367067221,0.1796507897,0.1626611009,0.6963940047,0.0167384089,9.7206212265
1520435236586594338,-0.0339469278,0.1743982100,0.1658625021,0.6855708953,-0.0084426970,9.6277796118
1520435236591607338,-0.0276700515,0.1676871724,0.1701284374,0.6735452182,-0.0036451988,9.6185948334
1520435236596622338,-0.0206441165,0.1580654985,0.1732885581,0.6555067025,-0.0360205853,9.6013698221
1520435236601637338,-0.0116043566,0.1519455973,0.1748483467,0.6446835931,-0.0036429509,9.6119028910
1520435236606653338,-0.0015623495,0.1434942852,0.1766590295,0.6194296711,0.0083504202,9.5842455489
1520435236611667338,0.0067192014,0.1338760174,0.1787346330,0.6218348065,-0.0228274181,9.5668203823
1520435236616682338,0.0177724295,0.1292101842,0.1816545327,0.5677192594,-0.0312171864,9.5940846061
1520435236621697338,0.0310904284,0.1274619962,0.1835102791,0.5556935823,0.0083553842,9.6034602201
1520435236626712338,0.0434012993,0.1254271288,0.1834718481,0.5701243949,-0.0144294078,9.5777748099
1520435236631727338,0.0526982543,0.1239709353,0.1845256475,0.5785423689,-0.0719888037,9.5986675940
1520435236636742338,0.0637539915,0.1216383637,0.1866516941,0.5268319572,-0.0408071254,9.6630584261
1520435236641757338,0.0737993426,0.1158102408,0.1882118389,0.4739189778,-0.0611883915,9.7042683657
1520435236646773338,0.0780597674,0.1085331288,0.1859839603,0.5051857384,-0.0563942650,9.8341194798
1520435236651786338,0.0803029760,0.0939604180,0.1874918809,0.4979703321,-0.0384065967,9.9004143754
1520435236656802338,0.0855612883,0.0796831868,0.1879142403,0.4763241133,-0.0527945959,9.9668813039
1520435236661817338,0.0890606030,0.0677465408,0.1845700089,0.4378419465,-0.0671812838,9.9823777692
1520435236666831338,0.0907888647,0.0491168310,0.1776608170,0.3368262586,-0.1139398929,9.9508665674
1520435236671847338,0.0887578448,0.0357203678,0.1745862840,0.3235980137,-0.0947526159,10.0114080992
1520435236676861338,0.0862213772,0.0237966559,0.1655717902,0.3031543626,-0.0347940025,10.0440886489
1520435236681876338,0.0836897043,0.0150767169,0.1571228421,0.3103697689,-0.0827601814,10.0173358812
1520435236686891338,0.0804007907,0.0037332933,0.1489258323,0.2730901698,-0.1103375077,10.0177256328
1520435236691906338,0.0748533985,-0.0055727815,0.1412896764,0.2514439509,-0.0995435580,10.0202500877
1520435236696921338,0.0708149049,-0.0119549507,0.1301558543,0.2370131384,-0.0827544681,10.0436170567
1520435236701934338,0.0677846880,-0.0154199671,0.1179602127,0.2117592164,-0.1031378885,9.9788026802
1520435236706950338,0.0645064262,-0.0171396885,0.1068605598,0.2670773312,-0.0839559501,9.9480297954
1520435236711966338,0.0629870799,-0.0191508337,0.0960259627,0.3235980137,-0.0563801223,9.9079398685
1520435236716979338,0.0647402480,-0.0176669984,0.0862941588,0.3753084254,-0.0575832901,9.8981405687
1520435236721995338,0.0685082485,-0.0135628284,0.0776608125,0.4149931599,-0.0312052916,9.9023771522
1520435236727010338,0.0730313805,-0.0074135723,0.0671478063,0.4703112747,-0.0312096000,9.8820822724
1520435236732025338,0.0783090206,-0.0024368433,0.0593299666,0.5292370926,-0.0599935595,9.8861853646
1520435236737040338,0.0835872761,0.0028305419,0.0517848959,0.5893654783,-0.0611973829,9.8763041295
1520435236742055338,0.0873522383,0.0037251115,0.0447503710,0.6543041348,-0.0300247895,9.8314801834
1520435236747070338,0.0916262199,0.0086963477,0.0388282194,0.7420915778,-0.0132436608,9.8236364798
1520435236752084338,0.0938920493,0.0133666705,0.0361541293,0.7384838747,-0.0252347840,9.7888189697
1520435236757099338,0.0939026540,0.0218197355,0.0351364152,0.8214610469,-0.0264403870,9.8589032714
1520435236762114338,0.0964237340,0.0264770451,0.0373316845,0.8322841563,-0.0564197405,9.7728285067
1520435236767129338,0.0944250890,0.0346328389,0.0382093024,0.8334867240,-0.1187751362,9.7368511447
1520435236772144338,0.0964530783,0.0477466587,0.0380350616,0.8515252397,-0.1679412984,9.7134806327
1520435236777160338,0.0964643888,0.0573681756,0.0359440562,0.8443098334,-0.1355639450,9.6926006997
1520435236782174338,0.0979835744,0.0649411219,0.0373517856,0.6939888693,-0.2051023821,9.7173745325
1520435236787189338,0.1032662248,0.0716574169,0.0327938351,0.4606907330,-0.4053406628,9.6222205010
1520435236792204338,0.1052715228,0.0719677998,0.0260286770,0.4486650559,-0.4748898707,9.6514589721
1520435236797219338,0.1120522513,0.0746191424,0.0162964310,0.4426522173,-0.5036687726,9.6422484098
1520435236802234338,0.1188276128,0.0734832145,0.0062647390,0.4294239725,-0.5408410955,9.6888991732
1520435236807249338,0.1238457721,0.0729257244,-0.0024065103,0.4582855976,-0.5588304497,9.7281486863
1520435236812264338,0.1303571640,0.0624653932,-0.0125088744,0.4558804621,-0.5612285432,9.7060937000
1520435236817277338,0.1351081860,0.0502524235,-0.0212685803,0.4137905922,-0.5852080736,9.7820661208
1520435236822293338,0.1436310231,0.0400820792,-0.0305608174,0.3560673420,-0.5648181907,9.7651759254
1520435236827308338,0.1471252923,0.0296256655,-0.0425514020,0.3897392379,-0.5180543366,9.8194233454
1520435236832323338,0.1493659252,0.0206227685,-0.0534463540,0.4173982953,-0.4844805590,9.8226078195
1520435236837339338,0.1528624329,0.0098662292,-0.0621926109,0.4498676236,-0.3945475560,9.7954747716
1520435236842353338,0.1546085599,0.0055194603,-0.0708866930,0.4943626290,-0.2974206472,9.8751349009
1520435236847368338,0.1523386964,0.0029114105,-0.0765839640,0.5653141240,-0.2554562583,9.8697547998
1520435236852383338,0.1462910784,-0.0061100326,-0.0817820503,0.6170245357,-0.1727195964,9.8621979343
1520435236857398338,0.1374799613,-0.0160132682,-0.0845467589,0.6879760307,-0.1103698204,10.0741188739
1520435236862413338,0.1327032135,-0.0183498572,-0.0832029463,0.8575380783,0.0754837392,9.9688564015
1520435236867426338,0.1203900844,-0.0233322567,-0.0742898548,1.2147006890,0.4232066450,9.9057715497
1520435236872441338,0.1045906055,-0.0120305520,-0.0533417169,1.3854653043,0.4939426303,9.7971231968
1520435236877457338,0.0897989720,0.0051167194,-0.0388440857,1.2303340693,0.3728415296,9.8301291392
1520435236882472338,0.0787620019,0.0141190841,-0.0290149820,1.3060958352,0.4172038247,9.8154027276
1520435236887487338,0.0591957808,0.0321422806,-0.0158545433,1.1990673088,0.4351992668,9.7234554212
1520435236892501338,0.0461559002,0.0469730052,-0.0065183359,1.2435623141,0.4339966610,9.6637541618
1520435236897516338,0.0356390402,0.0696742818,0.0020615899,1.3890730074,0.4327861877,9.6635011632
1520435236902532338,0.0233683692,0.0967478224,0.0098664914,1.3806550334,0.3752281030,9.7519621674
1520435236907546338,0.0085778492,0.1197453657,0.0160216615,1.3902755751,0.3056772092,9.8751236078
1520435236912562338,-0.0087254866,0.1415705589,0.0243369737,1.2880573195,0.2697109575,9.9714494220
1520435236917575338,-0.0303152355,0.1564168752,0.0266548564,1.1978647410,0.2121592417,10.0165448998
1520435236922591338,-0.0521568085,0.1718502326,0.0273543767,1.1233055428,0.1498097466,10.0254664266
1520435236927606338,-0.0750115824,0.1820411885,0.0269335647,1.0848233760,0.1102411098,9.9793938185
1520435236932622338,-0.0966144372,0.1890281353,0.0262154192,1.1016593240,0.1030449560,9.9536697967
1520435236937636338,-0.1194723867,0.1939610579,0.0306244178,1.1064695949,0.0191047517,9.9467319665
1520435236942650338,-0.1403232896,0.1962715790,0.0352802208,1.1365337877,0.0047127251,9.9255347810
1520435236947665338,-0.1581612842,0.1988848641,0.0361450036,1.1245081105,-0.0096760234,9.8559372264
1520435236952681338,-0.1750029279,0.1945031291,0.0377662031,1.1425466262,-0.0120757091,9.8650611408
1520435236957696338,-0.1898345299,0.1910014343,0.0374965169,1.0812156729,-0.0540408473,9.7645925016
1520435236962711338,-0.2006455702,0.1875020432,0.0369488172,1.0980516209,-0.1199948818,9.6947643072
1520435236967724338,-0.2107104960,0.1802236899,0.0331242664,1.1233055428,-0.1535727805,9.6945512425
1520435236972740338,-0.2112282186,0.1726635207,0.0271153899,1.0643797249,-0.1955381060,9.6126534964
1520435236977755338,-0.2124996612,0.1653951692,0.0208395908,1.0800131052,-0.2231195533,9.5462860201
1520435236982770338,-0.2062314725,0.1610545430,0.0105138324,1.0018462038,-0.2542911164,9.4668893187
1520435236987784338,-0.1969540764,0.1523457873,-0.0003919647,0.9886179590,-0.2662814904,9.4356518810
1520435236992799338,-0.1846529516,0.1509286537,-0.0134121526,0.9284895733,-0.2458914202,9.4129743759
1520435236997814338,-0.1688355407,0.1460068145,-0.0229484550,0.8888048388,-0.2506848911,9.3808252894
1520435237002830338,-0.1492497842,0.1428464142,-0.0368071540,0.8551329428,-0.2578771112,9.4218350855
1520435237007844338,-0.1334383009,0.1379442427,-0.0536481956,0.8407021303,-0.2638716894,9.3999006577
1520435237012860338,-0.1143620891,0.1312943155,-0.0702380972,0.8767791617,-0.2147097418,9.3960151312
1520435237017873338,-0.0930197460,0.1272648214,-0.0857300079,0.9369075473,-0.2231084078,9.3745194726
1520435237022890338,-0.0746922479,0.1211827992,-0.0969031452,1.0956464854,-0.2530992815,9.3578957672
1520435237027904338,-0.0556032477,0.1185882172,-0.1045339090,1.1233055428,-0.2890756483,9.3274458883
1520435237032919338,-0.0372705708,0.1116109170,-0.1078678846,1.1714082514,-0.3046682203,9.3699922138
1520435237037933338,-0.0209494292,0.1034658341,-0.1106659270,1.1870416316,-0.2986737357,9.4500221342
1520435237042949338,-0.0066430810,0.0909440967,-0.1115997606,1.2207135276,-0.3022737795,9.5566151444
1520435237047963338,0.0048966436,0.0749166492,-0.1095791324,1.2387520433,-0.2914829206,9.6389412653
1520435237052979338,0.0131722551,0.0609276135,-0.1075368752,1.1942570379,-0.3166614040,9.6382367645
1520435237057993338,0.0267270788,0.0486904094,-0.1060321724,1.2219160953,-0.3166635582,9.6763182987
1520435237063009338,0.0355142226,0.0425747802,-0.1060951926,1.2928675904,-0.3274613480,9.7337454221
1520435237068022338,0.0397797438,0.0364515514,-0.1039854445,1.2904624549,-0.3406517053,9.8395367948
1520435237073039338,0.0453081808,0.0344052846,-0.1007647232,1.3036906998,-0.3526441398,9.9126348017
1520435237078054338,0.0493287817,0.0326512684,-0.0980800704,1.3169189446,-0.3562425913,9.9485360167
1520435237083068338,0.0470660337,0.0308977046,-0.0964659330,1.3229317832,-0.3502473575,9.9926331150
1520435237088083338,0.0435505709,0.0303019022,-0.0921351107,1.2110929859,-0.3646283322,10.0797343699
1520435237093097338,0.0345052165,0.0297083045,-0.0894172959,1.1581800065,-0.3886070196,10.1058399462
1520435237098112338,0.0254546794,0.0285465063,-0.0921148451,1.0848233760,-0.4101858340,10.1193585862
1520435237103128338,0.0138904523,0.0276787502,-0.0961582336,1.0222898549,-0.4425577551,10.1676467234
1520435237108143338,-0.0001900602,0.0253574575,-0.1018313455,0.9453255213,-0.4593397268,10.2021143925
1520435237113157338,-0.0115041765,0.0236156463,-0.1058818699,0.8647534845,-0.4641300133,10.1494446867
1520435237118171338,-0.0213104056,0.0242157001,-0.1137050526,0.8214610469,-0.4641266415,10.1452174929
1520435237123187338,-0.0331306713,0.0242416668,-0.1250460442,0.8094353698,-0.4449394581,10.1267215308
1520435237128202338,-0.0419297174,0.0292259941,-0.1377075735,0.7577249581,-0.4605242563,10.1167807540
1520435237133218338,-0.0519867945,0.0342149281,-0.1522605905,0.6843683276,-0.4497262792,10.0837820637
1520435237138231338,-0.0597847304,0.0386278066,-0.1689866214,0.6963940047,-0.4233461265,10.1382600536
1520435237143247338,-0.0700942903,0.0442059671,-0.1859696385,0.7553198227,-0.4029653286,10.1086130282
1520435237148260338,-0.0781474846,0.0457049019,-0.2027174335,0.7745609061,-0.4173565123,10.1026290596
1520435237153277338,-0.0869495181,0.0501137444,-0.2180888680,0.7661429321,-0.3981696099,10.1422051800
1520435237158292338,-0.0937405925,0.0536433936,-0.2313063383,0.7697506352,-0.3705896611,10.1607374733
1520435237163306338,-0.1002948422,0.0466840267,-0.2448748524,0.7709532029,-0.3669923335,10.1537493965
1520435237168320338,-0.1083516512,0.0429263850,-0.2573339285,0.7697506352,-0.3765853632,10.1607433200
1520435237173335338,-0.1154021710,0.0377020166,-0.2660183445,0.7625352289,-0.3370131673,10.1363699391
1520435237178352338,-0.1234679146,0.0260711653,-0.2763730768,0.7901942863,-0.3166299343,10.1442158517
1520435237183366338,-0.1287705629,0.0121037649,-0.2843158147,0.8178533437,-0.3202295097,10.1334908478
1520435237188381338,-0.1330719795,-0.0062405654,-0.2898588527,0.7962071249,-0.3358166494,10.1255817326
1520435237193396338,-0.1353638483,-0.0278009928,-0.2911013441,0.8334867240,-0.3274255698,10.1008056674
1520435237198410338,-0.1351439128,-0.0487711107,-0.2947789696,0.8010173958,-0.2986436709,10.0859857684
1520435237203426338,-0.1296453414,-0.0700363730,-0.2963042522,0.8407021303,-0.2866553574,10.0391020500
1520435237208441338,-0.1264074912,-0.0904276394,-0.2980892110,0.8178533437,-0.2338913992,9.9962736688
1520435237213456338,-0.1176375071,-0.1096577576,-0.2974406322,0.7986122603,-0.1919199859,9.9894471591
1520435237218469338,-0.1053481946,-0.1277195024,-0.2973307871,0.8310815886,-0.1403594765,10.0053508564
1520435237223485338,-0.0917955742,-0.1428763792,-0.2936839480,0.8142456406,-0.1223710589,10.0264157782
1520435237228500338,-0.0847816945,-0.1615317018,-0.2903221971,0.8022199635,-0.0252397480,10.0008709453
1520435237233515338,-0.0679581357,-0.1714321792,-0.2904290524,0.7733583384,0.0491092061,9.9778364886
1520435237238530338,-0.0508751000,-0.1772619160,-0.2872587006,0.7986122603,0.0694926264,9.9671115080
1520435237243545338,-0.0418355205,-0.1851374087,-0.2830067916,0.7901942863,0.0599001587,9.9823106695
1520435237248558338,-0.0297745528,-0.1906893849,-0.2754961478,0.7829788801,0.1294508652,9.9520973354
1520435237253575338,-0.0247488977,-0.1959549187,-0.2671585751,0.7889917186,0.1462383628,9.9427252877
1520435237258590338,-0.0202239036,-0.1994708853,-0.2593478221,0.8479175366,0.1402380714,9.9595897460
1520435237263605338,-0.0199618473,-0.1995064800,-0.2460915399,0.8226636146,0.1510323020,9.9621493160
1520435237268618338,-0.0237230381,-0.2021697528,-0.2314950685,0.8130430729,0.1114614173,9.9832001358
1520435237273634338,-0.0305013908,-0.2030727882,-0.2217494840,0.8298790209,0.0850790168,9.9563326796
1520435237278649338,-0.0415449238,-0.2016588045,-0.2073789002,0.7805737446,0.0563034867,9.9545163631
1520435237283665338,-0.0563581117,-0.1990749320,-0.1951567905,0.7420915778,0.0251288328,9.9061112817
1520435237288680338,-0.0719206640,-0.1929940122,-0.1831771494,0.7168376559,0.0694989953,9.9249081256
1520435237293694338,-0.0877318297,-0.1842878163,-0.1722592174,0.6579118379,0.1114734995,9.8417663817
1520435237298708338,-0.1047894141,-0.1680053865,-0.1615516975,0.6037962908,0.1078802929,9.8132430184
1520435237303724338,-0.1218449716,-0.1490953970,-0.1527179912,0.5809475043,0.1030855108,9.8239293875
1520435237308739338,-0.1411602309,-0.1258024140,-0.1487165641,0.5172114155,0.0743111046,9.7606599021
1520435237313753338,-0.1582128755,-0.1013408214,-0.1455220829,0.4907549258,0.0695166034,9.7864892577
1520435237318767338,-0.1760143162,-0.0742621625,-0.1404123725,0.4462599204,0.1258796687,9.7798945221
1520435237323784338,-0.1968388582,-0.0497940340,-0.1401868953,0.4498676236,0.1150871239,9.8275178331
1520435237328798338,-0.2174102509,-0.0229903602,-0.1415673755,0.4510701913,0.1294767153,9.8460863993
1520435237333813338,-0.2394918124,0.0020644156,-0.1429583939,0.4943626290,0.0922999905,9.8747548656
1520435237338828338,-0.2638404343,0.0218675564,-0.1422208601,0.4342342433,0.0647244437,9.9253392033
1520435237343842338,-0.2902107886,0.0367316697,-0.1471988489,0.3741058577,0.0263566332,9.9677990573
1520435237348857338,-0.3138227992,0.0457626195,-0.1497915202,0.2995466595,-0.0144083343,9.9476459372
1520435237353873338,-0.3389460761,0.0530483136,-0.1537474592,0.2887235500,-0.0299963169,9.8850107105
1520435237358888338,-0.3605558348,0.0562530890,-0.1566588719,0.2911286855,-0.0347930659,9.8931269855
1520435237363901338,-0.3788990616,0.0588749183,-0.1590397064,0.2923312532,-0.0623733893,9.8234135380
1520435237368917338,-0.3942176031,0.0652728163,-0.1565274153,0.3572699097,-0.0515861831,9.7135294092
1520435237373932338,-0.4017474217,0.0702153868,-0.1534996163,0.3464468003,-0.0611784636,9.6787797908
1520435237378946338,-0.4037521003,0.0716591385,-0.1488854869,0.3019517949,-0.0923526492,9.6989997279
1520435237383961338,-0.4004791075,0.0733963423,-0.1442789355,0.3175851752,-0.0563796540,9.6802181787
1520435237388978338,-0.3921771038,0.0768816370,-0.1388567425,0.3067620657,-0.0731667770,9.6815020389
1520435237393992338,-0.3775957068,0.0789161126,-0.1348100624,0.2550516541,-0.0851541539,9.5437219192
1520435237399006338,-0.3688098881,0.0698778971,-0.1316487626,0.3055594980,-0.0911537897,9.5258039942
1520435237404023338,-0.3431670342,0.0739512974,-0.1257132355,0.3320159877,-0.1019481140,9.4988276961
1520435237409036338,-0.3160230284,0.0739495473,-0.1211643613,0.2923312532,-0.0587759680,9.5270633216
1520435237414051338,-0.2949197408,0.0672450470,-0.1171965086,0.2947363886,-0.0587761553,9.5363370631
1520435237419066338,-0.2624908932,0.0724888290,-0.1120763284,0.2827107115,-0.0815588868,9.4702341258
1520435237424082338,-0.2293170759,0.0727866538,-0.1097007997,0.2754953052,-0.0108090398,9.4702353651
1520435237429096338,-0.1984098721,0.0707583437,-0.1095032223,0.2791030083,0.0155717685,9.4724988124
1520435237434110338,-0.1584450470,0.0754295947,-0.1071069489,0.2791030083,0.0131734876,9.4434475522
1520435237439126338,-0.1247634846,0.0795156153,-0.1047034536,0.2670773312,0.0491486369,9.5074474400
1520435237444140338,-0.0905895293,0.0769036307,-0.1037047521,0.2418234092,0.0827265357,9.5529841189
1520435237449155338,-0.0551669992,0.0684644480,-0.1027528460,0.2863184146,0.1031084574,9.6187733585
1520435237454170338,-0.0202370382,0.0664311573,-0.1001278232,0.2706850343,0.1079062367,9.5712729447
1520435237459186338,0.0139337925,0.0611952552,-0.0986080377,0.2430259770,0.1031118292,9.5657361186
1520435237464201338,0.0478525324,0.0553764855,-0.0970922317,0.2682798989,0.0467502624,9.5701938472
1520435237469214338,0.0820210344,0.0495629134,-0.0974707136,0.2730901698,0.0395550453,9.5899104902
1520435237474230338,0.1146733419,0.0382153582,-0.0989708175,0.2815081438,0.0419526705,9.6700141490
1520435237479245338,0.1455786913,0.0323881228,-0.0947439518,0.2526465187,0.0611411651,9.7132756872
1520435237484261338,0.1737131556,0.0221912217,-0.0913569362,0.2586593572,0.0539458543,9.7771420955
1520435237489275338,0.1985886543,0.0178207313,-0.0879193914,0.2779004406,0.0803254450,9.8245769912
1520435237494290338,0.2217004390,0.0090744132,-0.0828886505,0.2526465187,0.0947170970,9.8364302049
1520435237499304338,0.2382810965,0.0032437511,-0.0794468193,0.2358105707,0.0935192678,9.9016753064
1520435237504320338,0.2475857355,0.0017620625,-0.0689239135,0.2514439509,0.0947171906,9.9642777449
1520435237509335338,0.2508500093,-0.0058381503,-0.0595186748,0.2370131384,0.0563458210,9.9900227914
1520435237514350338,0.2511018177,-0.0122791056,-0.0482051217,0.2297977321,0.0587446638,9.9912528270
1520435237519363338,0.2490926384,-0.0190159736,-0.0355368618,0.1985309716,0.0455565543,9.9845971575
1520435237524380338,0.2420566906,-0.0263375798,-0.0228637136,0.1480231276,0.0503570497,10.0524884419
1520435237529395338,0.2314958749,-0.0374434642,-0.0121067526,0.1359974505,0.0227777566,10.0770374103
1520435237534409338,0.2169139290,-0.0476716713,-0.0032294761,0.1492256953,0.0431621135,10.0873480715
1520435237539423338,0.1988241377,-0.0506181005,0.0062510035,0.1468205599,0.0311708966,10.0920317508
1520435237544439338,0.1782261567,-0.0488982628,0.0138778984,0.1275794765,0.0167827101,10.0620173210
1520435237549454338,0.1566237291,-0.0463032084,0.0209722377,0.1107435285,-0.0131944893,10.0110760912
1520435237554468338,0.1342699141,-0.0413751879,0.0272741241,0.1059332577,-0.0443717656,9.9786132836
1520435237559484338,0.1111635709,-0.0338177177,0.0308919595,0.0927050128,-0.0311801907,9.9682698809
1520435237564499338,0.0863011311,-0.0227584949,0.0323753718,0.0878947420,-0.0719505905,9.9706807465
1520435237569513338,0.0601775789,-0.0146114244,0.0330272492,0.1119460962,-0.0911387105,9.9077095813
1520435237574528338,0.0340567514,-0.0055952993,0.0355796171,0.1323897474,-0.1007334261,9.8401156007
1520435237579543338,0.0094474138,0.0066288316,0.0373420010,0.1275794765,-0.0851442259,9.8750115382
1520435237584558338,-0.0139009879,0.0214730018,0.0402042426,0.1107435285,-0.0827446338,9.8077687209
1520435237589573338,-0.0342382022,0.0334059651,0.0424975608,0.0830844711,-0.0671536541,9.8010498721
1520435237594588338,-0.0550794178,0.0459287848,0.0420907997,0.0626408200,-0.0599572194,9.7547560838
1520435237599602338,-0.0744089709,0.0604882448,0.0430495294,0.0458048720,-0.0899344187,9.7154362937
1520435237604618338,-0.0902204737,0.0744641289,0.0448089164,0.0253612209,-0.1007250903,9.6656736137
1520435237609633338,-0.1032741071,0.0858281047,0.0430260651,0.0409946012,-0.1295056781,9.6202258979
1520435237614648338,-0.1140588414,0.1003887269,0.0447805638,0.0506151429,-0.0875365125,9.5736055724
1520435237619661338,-0.1215801213,0.1129131226,0.0457017959,0.0554254137,-0.1331042233,9.5224688530
1520435237624677338,-0.1270900461,0.1248497095,0.0487792151,0.0746664971,-0.1690799345,9.4897766216
1520435237629693338,-0.1283304862,0.1350403914,0.0515648157,0.0746664971,-0.1666816537,9.4165592138
1520435237634708338,-0.1248009569,0.1414434882,0.0548537402,0.0337791949,-0.1678776097,9.4181204990
1520435237639722338,-0.1207700571,0.1487289482,0.0551723956,-0.0022978365,-0.1642773786,9.3963874076
1520435237644737338,-0.1127132324,0.1583405039,0.0579362813,0.0061201375,-0.1450917874,9.3695574518
1520435237649751338,-0.1006397585,0.1662111551,0.0585149937,0.0530202783,-0.1462945806,9.3586428283
1520435237654767338,-0.0898169295,0.1775742863,0.0604754461,0.0710587940,-0.1498934068,9.4421451252
1520435237659782338,-0.0747210051,0.1909846103,0.0602791588,0.0229560855,-0.1235085711,9.4216690108
1520435237664797338,-0.0623919631,0.2026462726,0.0598041210,-0.0227414876,-0.1139118886,9.4546444790
1520435237669811338,-0.0470499304,0.2125615376,0.0590395981,-0.0143235136,-0.1019211400,9.4975501765
1520435237674826338,-0.0352325853,0.2204481158,0.0536667674,-0.0275517585,-0.0659458970,9.5150760113
1520435237679841338,-0.0251760962,0.2254128753,0.0509804320,-0.0672364930,-0.0659428062,9.5398673012
1520435237684857338,-0.0141132239,0.2312521822,0.0482988989,-0.0203363522,-0.0371670888,9.5963277936
1520435237689871338,-0.0058169753,0.2335857790,0.0485718276,-0.0071081073,-0.0431638212,9.6508256505
1520435237694886338,0.0027213317,0.2286326758,0.0496003502,-0.0143235136,-0.0047907657,9.6648041894
1520435237699900338,0.0117650120,0.2271829398,0.0482197032,0.0542228460,0.0155892829,9.6455228192
1520435237704915338,0.0147753603,0.2225183266,0.0495312627,0.0421971689,0.0012005344,9.7095718193
1520435237709931338,0.0217994056,0.2123175259,0.0513342077,0.0554254137,-0.0095927596,9.7466421943
1520435237714946338,0.0270643121,0.2009453989,0.0550253487,0.0686536586,-0.0215851941,9.7383901244
1520435237719960338,0.0318278950,0.1898615457,0.0598018299,0.1047306900,-0.0059991784,9.7775366657
1520435237724975338,0.0360868535,0.1761499359,0.0664530580,0.0939075805,0.0047939283,9.7985500783
1520435237729990338,0.0403457727,0.1641946460,0.0701416197,0.0951101483,0.0071921155,9.7671581478
1520435237735005338,0.0448557673,0.1507767045,0.0759829665,0.0506151429,0.0131912830,9.7687475322
1520435237740021338,0.0491126636,0.1376573333,0.0791215441,0.0361843303,0.0407726367,9.7746718178
1520435237745035338,0.0563922262,0.1286134280,0.0841794655,0.0217535178,0.0036004075,9.7492813610
1520435237750049338,0.0603993173,0.1157817008,0.0886734624,0.0121329761,-0.0035936858,9.7784356164
1520435237755065338,0.0659143387,0.1049989971,0.0899336698,-0.0467928419,0.0167962908,9.8080428842
1520435237760080338,0.0729404540,0.0971329148,0.0904016701,-0.0311594616,0.0060028094,9.8183605381
1520435237765095338,0.0794627407,0.0886853233,0.0903250658,-0.0600210867,-0.0419605597,9.8779575747
1520435237770109338,0.0817093404,0.0779064388,0.0896975193,-0.0528056804,-0.0803336152,9.9337076730
1520435237775124338,0.0854622826,0.0665475612,0.0882510887,-0.0816673055,-0.0551494185,9.9618554932
1520435237780139338,0.0864516434,0.0563560525,0.0857365007,0.0061201375,-0.0335717281,9.9691149836
1520435237785154338,0.0866853906,0.0444137559,0.0840216121,0.0361843303,-0.0551585972,10.0629770656
1520435237790169338,0.0866736019,0.0365500158,0.0826088593,0.0470074397,-0.0635534231,10.0559070417
1520435237795185338,0.0881647645,0.0243124564,0.0825126894,0.0794767680,-0.0479671264,9.9811985907
1520435237800198338,0.0818537845,0.0033303090,0.0823642954,0.1011229868,-0.0551636548,10.0019135069
1520435237805214338,0.0820932476,-0.0057039697,0.0828360048,0.1251743411,-0.0659577918,10.0121492254
1520435237810229338,0.0803200344,-0.0156095476,0.0819520493,0.1468205599,-0.0299852650,9.9933091510
1520435237815243338,0.0782901515,-0.0307659728,0.0831929121,0.2189746227,-0.0323891654,10.0123656335
1520435237820258338,0.0770224802,-0.0398030275,0.0844790595,0.2394182738,-0.0815555150,9.9959445751
1520435237825274338,0.0739885977,-0.0511587360,0.0808808632,0.2658747635,-0.1031421032,10.0061674075
1520435237830289338,0.0714694465,-0.0569932385,0.0830054359,0.2502413832,-0.1247254132,10.0307456444
1520435237835303338,0.0704581314,-0.0631199917,0.0856660770,0.2346080030,-0.1163302127,10.0878346785
1520435237840318338,0.0641653696,-0.0692349723,0.0831961472,0.1792898882,-0.1319147298,10.1023340400
1520435237845333338,0.0538524852,-0.0753537135,0.0815453227,0.1720744819,-0.1439055721,10.0756866528
1520435237850347338,0.0458054733,-0.0770949732,0.0777592768,0.1372000182,-0.1319114517,10.0620686786
1520435237855363338,0.0372477720,-0.0834927548,0.0717742278,0.1504282631,-0.1283150607,10.0921521577
1520435237860378338,0.0286951281,-0.0869803333,0.0671641391,0.1720744819,-0.1355115891,10.1047320663
1520435237865392338,0.0173751155,-0.0933857538,0.0636191372,0.2430259770,-0.0971446215,10.0795990260
1520435237870406338,0.0088212367,-0.0989181230,0.0608873082,0.2153669196,-0.0887484844,10.0484821702
1520435237875422338,0.0012796765,-0.1006686554,0.0606174255,0.2273925967,-0.1163296507,10.0123655519
1520435237880438338,-0.0037498598,-0.1018296067,0.0581829545,0.1708719142,-0.1918710954,9.9665035997
1520435237885452338,-0.0060097380,-0.0977387261,0.0536189980,0.1263769088,-0.1714822427,9.9645925201
1520435237890467338,-0.0100372820,-0.0980105614,0.0457784115,0.1636565079,-0.0803504740,10.0780309011
1520435237895481338,-0.0085224871,-0.0904230465,0.0417752230,0.1816950236,-0.1187243725,10.0197855464
1520435237900496338,-0.0067609686,-0.0860399345,0.0374765678,0.2646721958,-0.1187308350,10.0282750491
1520435237905511338,-0.0052555866,-0.0845678525,0.0320739650,0.3488519357,-0.1199365316,10.0355918722
1520435237910527338,-0.0004714528,-0.0787433903,0.0340033802,0.3873341025,-0.1103464054,9.9887221975
1520435237915542338,0.0028052369,-0.0737987715,0.0378227478,0.4173982953,-0.1079504660,9.9489143380
1520435237920556338,0.0161359968,-0.0653448589,0.0384035728,0.4125880245,-0.1211406360,9.9164339902
1520435237925572338,0.0307249210,-0.0563105987,0.0400686938,0.4270188370,-0.1115486366,9.9372027660
1520435237930585338,0.0488377917,-0.0431963052,0.0420289499,0.4366393787,-0.1355321943,9.9324839365
1520435237935601338,0.0687084763,-0.0318332718,0.0453253298,0.4787292487,-0.1619165617,9.9437214246
1520435237940616338,0.0898396106,-0.0190193794,0.0510654046,0.5196165509,-0.1954956780,9.9177890272
1520435237945631338,0.1099622486,-0.0091219114,0.0575967532,0.5773398012,-0.2206821226,9.8963331494
1520435237950645338,0.1308421234,0.0019355627,0.0662999610,0.5364524989,-0.2518565892,9.9455715702
1520435237955661338,0.1554927978,0.0129901430,0.0766194434,0.5605038532,-0.3106163431,9.9593404942
1520435237960674338,0.1796320771,0.0182197495,0.0858132140,0.4835395195,-0.3046146468,9.8334100801
1520435237965689338,0.1899408529,0.0149857770,0.0979441897,0.4330316756,-0.3477797683,9.9757253511
1520435237970706338,0.2090559590,0.0213782241,0.1074267330,0.3897392379,-0.3957420135,10.0354628483
1520435237975720338,0.2226350108,0.0219393578,0.1174161743,0.2911286855,-0.3969334738,10.0596667114
1520435237980736338,0.2258948427,0.0117195979,0.1257192216,0.2081515133,-0.4257063814,10.1209339100
1520435237985751338,0.2241337593,0.0058715506,0.1329827662,0.1444154245,-0.4568790684,10.1657461511
1520435237990766338,0.2143202969,-0.0055050269,0.1361608188,0.0397920335,-0.4460786562,10.1469975197
1520435237995780338,0.2042631453,-0.0119310797,0.1404593142,-0.0900852795,-0.4256831537,10.1982139771
1520435238000794338,0.1849055730,-0.0157186468,0.1374903469,-0.0804647378,-0.4700520987,10.1725964352
1520435238005809338,0.1580025240,-0.0244634331,0.1347681348,-0.1033135244,-0.4760460212,10.1983918450
1520435238010825338,0.1331257041,-0.0215520506,0.1321311123,-0.0973006858,-0.5156181235,10.1623454453
1520435238015839338,0.1027157780,-0.0221401769,0.1297482266,-0.0479954096,-0.5707824230,10.1317035848
1520435238020854338,0.0720556076,-0.0224392024,0.1281796684,-0.0155260813,-0.5983651816,10.0605236618
1520435238025869338,0.0373756674,-0.0221577626,0.1268935698,-0.0323620293,-0.6379355043,9.9654303166
1520435238030884338,0.0052067828,-0.0221616237,0.1237067596,0.0001072989,-0.6847045097,9.9268091338
1520435238035899338,-0.0216786674,-0.0177933778,0.1208140404,0.0061201375,-0.7326705949,9.8117451306
1520435238040914338,-0.0493185826,-0.0125454463,0.1157650235,-0.0491979773,-0.7698396397,9.7518883271
1520435238045929338,-0.0752001979,-0.0078795946,0.1107082933,-0.0708441961,-0.7830284985,9.6707618041
1520435238050943338,-0.0985696952,-0.0002828875,0.0997171171,-0.0407800033,-0.7362643634,9.5158584275
1520435238055959338,-0.1133936720,0.0070199550,0.0908722163,-0.1345802849,-0.7254647941,9.5144366100
1520435238060974338,-0.1244547173,0.0111263289,0.0792904018,-0.1670496132,-0.7338562483,9.4880315209
1520435238065988338,-0.1352732141,0.0105786615,0.0646965464,-0.1911009674,-0.7242612517,9.4324733575
1520435238071004338,-0.1403134217,0.0088677205,0.0500830639,-0.1971138060,-0.7674298386,9.3860882208
1520435238076018338,-0.1368067014,0.0077363402,0.0378930722,-0.2355959728,-0.7410457522,9.3097355562
1520435238081033338,-0.1338030569,0.0083625397,0.0222002557,-0.1935061029,-0.7122696602,9.2976763755
1520435238086048338,-0.1209988091,0.0063584633,0.0107979636,-0.1670496132,-0.6834923505,9.2985529441
1520435238091063338,-0.1064447492,-0.0011754024,-0.0028142014,-0.1706573163,-0.6643058228,9.2753264708
1520435238096078338,-0.0873659068,-0.0092975493,-0.0137337546,-0.1730624517,-0.6139417377,9.2357878742
1520435238101092338,-0.0640119891,-0.0139155807,-0.0267989322,-0.1405931235,-0.5587838070,9.2156616008
1520435238106108338,-0.0361395302,-0.0214427714,-0.0409769253,-0.0924904150,-0.5839695023,9.2082450910
1520435238111123338,0.0000324233,-0.0278179289,-0.0489388723,-0.0588185190,-0.5743790014,9.2683394803
1520435238116137338,0.0344396082,-0.0388581133,-0.0561214839,-0.1129340661,-0.5324048719,9.2909060161
1520435238121153338,0.0668302436,-0.0542691249,-0.0636042539,-0.0299568939,-0.5252164919,9.3935221631
1520435238126168338,0.1143086136,-0.0647308901,-0.0672895924,0.0602356846,-0.4700630569,9.4053740778
1520435238131182338,0.1537385564,-0.0807342973,-0.0701905966,0.0482100075,-0.4364861884,9.4391605615
1520435238136197338,0.1929252020,-0.0929592737,-0.0695451373,0.1239717734,-0.4173058422,9.5906452915
1520435238141211338,0.2308626493,-0.1025746649,-0.0642780564,0.0927050128,-0.3441558412,9.5804189977
1520435238146227338,0.2617544066,-0.1174304501,-0.0617433817,0.1119460962,-0.2913951612,9.7115025327
1520435238151240338,0.2979364630,-0.1223756369,-0.0596840152,0.0710587940,-0.2122487088,9.8222270039
1520435238156257338,0.3225548567,-0.1305320393,-0.0570865415,0.0963127160,-0.2386317650,9.8882491286
1520435238161272338,0.3431582714,-0.1363676820,-0.0512172648,0.1684667787,-0.2254468399,9.9584247436
1520435238166285338,0.3579862979,-0.1398788835,-0.0436961934,0.1732770496,-0.2206506528,10.0315883152
1520435238171303338,0.3662795866,-0.1442675269,-0.0358991106,0.2237848935,-0.2446373950,10.1182808862
1520435238176317338,0.3705541640,-0.1463230272,-0.0294295050,0.2093540810,-0.2458354115,10.1556111227
1520435238181332338,0.3675380801,-0.1518838245,-0.0208086742,0.2285951644,-0.2746162803,10.2135591037
1520435238186347338,0.3597547084,-0.1524951408,-0.0113295456,0.2297977321,-0.3597553440,10.2775483392
1520435238191362338,0.3482080603,-0.1475672572,-0.0034244529,0.2839132792,-0.3777466650,10.2537962726
1520435238196376338,0.3296216147,-0.1446796369,0.0036665087,0.2502413832,-0.3873371659,10.2611062327
1520435238201390338,0.3070162343,-0.1409216235,0.0115832449,0.2550516541,-0.4365022979,10.2634316432
1520435238206407338,0.2846645756,-0.1342445674,0.0176279240,0.2550516541,-0.4664808085,10.2018672472
1520435238211420338,0.2560295248,-0.1272742176,0.0220632188,0.2201771904,-0.4988548838,10.1487796441
1520435238216434338,0.2273985238,-0.1165122268,0.0251746843,0.2430259770,-0.5192420506,10.1357935433
1520435238221451338,0.1975118246,-0.1037044806,0.0258691319,0.1780873205,-0.5000507461,10.1491904904
1520435238226466338,0.1615946199,-0.0879743257,0.0225388233,0.1564411016,-0.5384215538,10.1668707596
1520435238231480338,0.1206568920,-0.0690445522,0.0205950325,0.2057463779,-0.5408236747,10.1756903426
1520435238236496338,0.0766936790,-0.0574005734,0.0186012654,0.2634696281,-0.5792006639,10.0868429782
1520435238241511338,0.0337376373,-0.0457627567,0.0190405443,0.2718876021,-0.6199720940,10.0240450268
1520435238246526338,-0.0122288037,-0.0320944424,0.0224769905,0.3584724774,-0.6607496119,10.0662413466
1520435238251539338,-0.0536712072,-0.0184265413,0.0267166732,0.3608776128,-0.6667455013,9.9244422207
1520435238256555338,-0.0956233788,-0.0097109171,0.0303784052,0.3416365294,-0.6979216538,9.9153627528
1520435238261570338,-0.1353069531,0.0042512430,0.0338054064,0.3476493680,-0.7279006326,9.9060363094
1520435238266584338,-0.1722251426,0.0182108441,0.0385800030,0.3332185554,-0.7231029470,9.8480648950
1520435238271600338,-0.2043792120,0.0248898878,0.0424785171,0.3296108523,-0.7159078235,9.7632564855
1520435238276615338,-0.2304971384,0.0350671805,0.0466630527,0.3356236908,-0.7039168876,9.6539447351
1520435238281630338,-0.2510872825,0.0446638700,0.0508328743,0.3825238317,-0.7195093658,9.5465861955
1520435238286645338,-0.2648962277,0.0522271684,0.0536218033,0.3644853160,-0.7243045226,9.5188749938
1520435238291659338,-0.2699057503,0.0641712365,0.0539928301,0.3031543626,-0.7362911502,9.4230256969
1520435238296674338,-0.2751736089,0.0717480803,0.0529782479,0.2574567895,-0.7374867315,9.3060951190
1520435238301689338,-0.2741568836,0.0813692626,0.0511559216,0.2694824666,-0.7494790724,9.2536932839
1520435238306704338,-0.2688713714,0.0910030450,0.0452674725,0.3175851752,-0.7590759422,9.1486414805
1520435238311719338,-0.2588128554,0.0985953643,0.0407073236,0.3656878837,-0.7434908630,9.1597795164
1520435238316732338,-0.2394539540,0.1067689964,0.0380281733,0.3608776128,-0.7554818926,9.1052172641
1520435238321748338,-0.2170879074,0.1111667377,0.0312563338,0.4173982953,-0.7315034862,9.1209137550
1520435238326763338,-0.1947248520,0.1135255156,0.0241983868,0.5003754675,-0.7351073700,9.0701374241
1520435238331778338,-0.1650640629,0.1205369179,0.0217617545,0.5544910146,-0.7638909549,9.0847466321
1520435238336793338,-0.1421970574,0.1196717238,0.0217126134,0.5749346657,-0.7447063003,9.1577440059
1520435238341808338,-0.1148130044,0.1156096279,0.0191957043,0.6254425097,-0.7483076553,9.2072280916
1520435238346823338,-0.0793787208,0.1182539837,0.0161738992,0.6807606245,-0.7195325935,9.2589580728
1520435238351837338,-0.0512378741,0.1138898722,0.0177115553,0.6843683276,-0.7327234191,9.3275023136
1520435238356853338,-0.0230963256,0.1092307340,0.0205997178,0.6711400828,-0.7123370017,9.3671240849
1520435238361868338,0.0037921159,0.1069014514,0.0237785445,0.6783554890,-0.6715667892,9.4483641738
1520435238366882338,0.0246406743,0.0981593462,0.0269196646,0.6807606245,-0.6619738532,9.5366543495
1520435238371898338,0.0510224684,0.0920382256,0.0314232541,0.6422784577,-0.6200009412,9.5276908328
1520435238376913338,0.0741361937,0.0865051501,0.0335024441,0.6170245357,-0.5588428128,9.5255527148
1520435238381927338,0.0929727738,0.0751332406,0.0390622034,0.5641115563,-0.5312584620,9.6143637830
1520435238386943338,0.1065302829,0.0655214110,0.0395047303,0.4727164101,-0.4940779907,9.7012157704
1520435238391958338,0.1231112070,0.0608606576,0.0413321785,0.4642984361,-0.5060687393,9.7233901343
1520435238396972338,0.1366761100,0.0576636581,0.0402003379,0.4294239725,-0.4604986871,9.7852787756
1520435238401987338,0.1426985786,0.0541825185,0.0352926334,0.4414496496,-0.4616987641,9.8525672437
1520435238407000338,0.1525006483,0.0579867404,0.0307040511,0.4125880245,-0.4748870609,9.8888874904
1520435238412017338,0.1547601031,0.0597512307,0.0250317252,0.4222085662,-0.5060654612,9.9341478670
1520435238417031338,0.1529999215,0.0626811407,0.0188346676,0.4522727590,-0.5348471729,10.0303412529
1520435238422047338,0.1489768194,0.0650288524,0.0120962724,0.4859446550,-0.5936076761,10.0695837034
1520435238427061338,0.1394281264,0.0664864043,0.0105018480,0.5641115563,-0.5768257981,10.1269137017
1520435238432077338,0.1273668451,0.0696978347,0.0064905162,0.5099960092,-0.6199906386,10.1449146848
1520435238437091338,0.1137939444,0.0705797835,0.0016525624,0.4895523581,-0.6367770123,10.1672107766
1520435238442106338,0.0969573698,0.0734986871,-0.0026226707,0.4667035716,-0.6751477263,10.1767677432
1520435238447122338,0.0793652286,0.0758374401,-0.0079831333,0.4318291079,-0.6967295378,10.1957225412
1520435238452135338,0.0597614658,0.0775940932,-0.0138854001,0.3885366702,-0.7243063958,10.1973329620
1520435238457151338,0.0399018369,0.0790731035,-0.0249297952,0.3861315348,-0.7482890170,10.1601911523
1520435238462166338,0.0208004993,0.0820013191,-0.0329884703,0.3115723366,-0.7254995420,10.2050561186
1520435238467180338,0.0006924766,0.0861048770,-0.0448240286,0.2478362478,-0.7182997355,10.1812644476
1520435238472196338,-0.0211785505,0.0884645376,-0.0585634797,0.2634696281,-0.7422837615,10.2171621312
1520435238477211338,-0.0428076917,0.0847088637,-0.0737028118,0.2634696281,-0.7494786041,10.1916019802
1520435238482225338,-0.0599076086,0.0829844556,-0.0850473408,0.3488519357,-0.7554809560,10.2477218217
1520435238487241338,-0.0822867376,0.0795082160,-0.0958543152,0.3572699097,-0.7279013819,10.2813151662
1520435238492255338,-0.1016560907,0.0707838658,-0.1050836306,0.4173982953,-0.7458931713,10.2633152941
1520435238497270338,-0.1167521837,0.0600083858,-0.1094666157,0.5160088478,-0.7914681875,10.2286977397
1520435238502285338,-0.1315980364,0.0474803266,-0.1122401306,0.5376550666,-0.8238466648,10.1401956803
1520435238507301338,-0.1466989712,0.0323304366,-0.1153037325,0.5472756083,-0.8850035757,10.0739194708
1520435238512314338,-0.1527477810,0.0209713614,-0.1180846904,0.5316422281,-0.9245739921,10.0101923072
1520435238517328338,-0.1587946110,0.0110692088,-0.1208545329,0.5352499312,-1.0001201197,9.9033136166
1520435238522345338,-0.1595660984,0.0008828384,-0.1255302210,0.4799318164,-1.0828565006,9.8202583689
1520435238527360338,-0.1585776589,-0.0090129153,-0.1296658612,0.3969546442,-1.1392096379,9.7746352186
1520435238532375338,-0.1535596329,-0.0101553598,-0.1375299190,0.2995466595,-1.1487951749,9.7081883336
1520435238537389338,-0.1457841765,-0.0139082555,-0.1494773070,0.2406208415,-1.1499897259,9.7366545056
1520435238542404338,-0.1344884666,-0.0153250546,-0.1627661738,0.1203640702,-1.1535777812,9.7192342160
1520435238547420338,-0.1219360821,-0.0149857698,-0.1787494948,-0.0059055396,-1.1523688065,9.7239485094
1520435238552434338,-0.1129024929,-0.0134750410,-0.1974228482,-0.0804647378,-1.1175879273,9.7943689493
1520435238557450338,-0.0995956827,-0.0122591221,-0.2142125377,-0.1393905558,-1.0624228785,9.8495094733
1520435238562464338,-0.0908186260,-0.0139508078,-0.2339920620,-0.2307857020,-0.9748785094,9.8886644463
1520435238567478338,-0.0840513484,-0.0168161036,-0.2510712858,-0.3209782804,-0.8969273574,9.9359520767
1520435238572495338,-0.0840748590,-0.0240555541,-0.2679007085,-0.2620524625,-0.8285809426,9.9829597787
1520435238577509338,-0.0856011132,-0.0313123492,-0.2785047752,-0.2788884105,-0.7554320655,9.9772416000
1520435238582524338,-0.0898987387,-0.0441079902,-0.2886048548,-0.2620524625,-0.6918789343,9.9653943147
1520435238587539338,-0.0987242319,-0.0606955875,-0.2979137958,-0.1730624517,-0.6319288440,9.9412267945
1520435238592553338,-0.1052888395,-0.0822555034,-0.2999599906,-0.0540082481,-0.6199467121,9.8773005270
1520435238597568338,-0.1095886448,-0.1055810511,-0.2952600770,0.0963127160,-0.6103652962,9.8665308886
1520435238602583338,-0.1093588769,-0.1277545855,-0.2848782083,0.2310002998,-0.6307611733,9.8268890505
1520435238607598338,-0.1073699271,-0.1490496350,-0.2758456668,0.3380288263,-0.6367652112,9.7665838056
1520435238612613338,-0.1041177596,-0.1683176123,-0.2619300713,0.4378419465,-0.6391712658,9.6993724192
1520435238617627338,-0.0945732694,-0.1814691521,-0.2460856377,0.4895523581,-0.6739503655,9.6477686786
1520435238622644338,-0.0832589454,-0.1841185049,-0.2344931745,0.4943626290,-0.7015309698,9.6001008510
1520435238627657338,-0.0666570040,-0.1780191553,-0.2247376412,0.4931600612,-0.7015308762,9.6500847461
1520435238632673338,-0.0530738554,-0.1724957435,-0.2179569583,0.4390445142,-0.7063232232,9.5890225215
1520435238637688338,-0.0369742411,-0.1637632035,-0.2122386722,0.4065751859,-0.7195112390,9.6172428756
1520435238642702338,-0.0171020982,-0.1488926294,-0.2129738036,0.3404339617,-0.6895275771,9.6062359807
1520435238647716338,-0.0030173045,-0.1383899886,-0.2156253680,0.2370131384,-0.7039092075,9.6746609970
1520435238652732338,0.0128347667,-0.1208890593,-0.2198501208,0.1997335393,-0.6763260743,9.6947534061
1520435238657747338,0.0266733738,-0.1033787197,-0.2278587824,0.1299846119,-0.6583335356,9.7465490933
1520435238662762338,0.0364894824,-0.0876204478,-0.2350616771,0.0794767680,-0.5959742999,9.7853306505
1520435238667775338,0.0455442615,-0.0765209816,-0.2436514706,0.0722613617,-0.5348175763,9.8399620104
1520435238672792338,0.0518373017,-0.0648456568,-0.2500673168,0.0806793357,-0.4604715257,9.9106983572
1520435238677807338,0.0528443553,-0.0595828591,-0.2565222696,0.1227692057,-0.4209031698,9.9985730325
1520435238682822338,0.0508388064,-0.0552092367,-0.2578379191,0.1732770496,-0.3801363292,10.1607418162
1520435238687837338,0.0465716895,-0.0546419816,-0.2526851666,0.1949232684,-0.2902024833,10.1557948489
1520435238692852338,0.0375236849,-0.0610807522,-0.2435187119,0.2201771904,-0.2638233608,10.1729554766
1520435238697865338,0.0272187471,-0.0675185583,-0.2348910155,0.2201771904,-0.2050654801,10.2263568009
1520435238702882338,0.0123886191,-0.0780499033,-0.2216867610,0.2382157061,-0.1834823574,10.2075658737
1520435238707897338,-0.0019368451,-0.0877098115,-0.2073945871,0.2370131384,-0.1630968765,10.2005848362
1520435238712911338,-0.0165106170,-0.0953308549,-0.1928158390,0.1853027267,-0.1618937087,10.1638983778
1520435238717925338,-0.0366080351,-0.0991653371,-0.1784684688,0.1408077214,-0.2206481240,10.1155787164
1520435238722941338,-0.0531866031,-0.1000736691,-0.1681635902,0.0590331169,-0.2458237040,9.9943741012
1520435238727955338,-0.0695048906,-0.0919380558,-0.1618484512,-0.0576159513,-0.2865853934,9.8828212856
1520435238732972338,-0.0883366486,-0.0835091289,-0.1566086055,-0.1442008266,-0.3429382498,9.8279360988
1520435238737986338,-0.1044096080,-0.0750609082,-0.1581375411,-0.2055317800,-0.4076870560,9.7309761089
1520435238743001338,-0.1139466377,-0.0633976135,-0.1623596165,-0.2500267854,-0.4436578033,9.6837963740
1520435238748014338,-0.1269992126,-0.0502809599,-0.1657524047,-0.2668627333,-0.4940203898,9.6375235989
1520435238753030338,-0.1337731822,-0.0377344158,-0.1729489497,-0.3185731450,-0.5431811198,9.5695083659
1520435238758045338,-0.1372718656,-0.0196531996,-0.1790271399,-0.3318013898,-0.5527732129,9.5394307334
1520435238763060338,-0.1362510827,-0.0033134193,-0.1870208909,-0.3835118015,-0.5563666068,9.5318025512
1520435238768074338,-0.1327222395,0.0092386182,-0.1947776633,-0.3931323432,-0.5395778916,9.5702305714
1520435238773090338,-0.1216495936,0.0247045410,-0.2014440230,-0.4207914006,-0.5024023843,9.4833027416
1520435238778104338,-0.1226621671,0.0241432310,-0.2095629792,-0.4111708589,-0.5143945378,9.5622465834
1520435238783120338,-0.1115987184,0.0320295139,-0.2149344096,-0.4412350517,-0.5155913368,9.5706753869
1520435238788135338,-0.0924939660,0.0416759958,-0.2235539875,-0.4628812706,-0.4376455234,9.5382700401
1520435238793150338,-0.0847117470,0.0381933600,-0.2276533213,-0.4412350517,-0.4400454901,9.6147631888
1520435238798164338,-0.0703923712,0.0370436319,-0.2314764595,-0.4869326248,-0.3932754545,9.5779737701
1520435238803180338,-0.0545688954,0.0341505580,-0.2369390118,-0.4977557342,-0.3297201691,9.5629092693
1520435238808194338,-0.0382480165,0.0262990449,-0.2405464688,-0.4965531665,-0.3561013521,9.5141132436
1520435238813210338,-0.0201629023,0.0207727414,-0.2417044950,-0.5194019531,-0.3477055896,9.4457609610
1520435238818223338,0.0009408323,0.0169937413,-0.2420431458,-0.4773120831,-0.3441114464,9.4709149430
1520435238823238338,0.0195324568,0.0132108428,-0.2412949457,-0.4316145100,-0.3764917969,9.3961245099
1520435238828255338,0.0383810098,0.0129217435,-0.2394383518,-0.4207914006,-0.4328522398,9.3612098047
1520435238833269338,0.0605026889,0.0149548022,-0.2337823980,-0.3859169369,-0.4724265899,9.3376660672
1520435238838284338,0.0856396481,0.0175754536,-0.2294803283,-0.3450296347,-0.5000100041,9.3245114066
1520435238843298338,0.1019748992,0.0149448238,-0.2241197551,-0.3390167961,-0.5515735106,9.3709889211
1520435238848312338,0.1253540408,0.0178532569,-0.2187300116,-0.3510424732,-0.5935424888,9.3967140655
1520435238853329338,0.1482259625,0.0163863545,-0.2117494056,-0.3462322024,-0.5959411443,9.4280474707
1520435238858344338,0.1650635446,0.0125860129,-0.2047753828,-0.3630681504,-0.6331131862,9.4863547887
1520435238863359338,0.1829117322,0.0122804942,-0.1969649123,-0.3450296347,-0.6570973995,9.4699325843
1520435238868372338,0.1967361865,0.0081781171,-0.1864704153,-0.3666758535,-0.6319137647,9.5073073258
1520435238873388338,0.2118211808,0.0064043947,-0.1748782837,-0.4159811297,-0.6331090651,9.4752483717
1520435238878404338,0.2203728015,0.0049194970,-0.1632717942,-0.4496530257,-0.6199158980,9.4964818417
1520435238883418338,0.2304349398,0.0043042447,-0.1497676145,-0.4700966768,-0.6007280590,9.5512828841
1520435238888432338,0.2382326640,0.0028190516,-0.1381597248,-0.4520581611,-0.6007294639,9.5882959148
1520435238893447338,0.2437745911,0.0045331032,-0.1246293594,-0.4364247809,-0.5683538900,9.6775972614
1520435238898462338,0.2445472898,0.0079833933,-0.1072891453,-0.4412350517,-0.5479681282,9.6834349226
1520435238903477338,0.2455691782,0.0108553834,-0.0915771193,-0.3510424732,-0.5683605399,9.7162790968
1520435238908492338,0.2413136539,0.0116768731,-0.0726243031,-0.3125603064,-0.5731600987,9.7519356749
1520435238913507338,0.2322836714,0.0124957637,-0.0533920732,-0.2957243585,-0.5743605504,9.6948279197
1520435238918521338,0.2227498172,0.0130259865,-0.0352433165,-0.2716730042,-0.5443839130,9.6968888730
1520435238923537338,0.2096994925,0.0138418450,-0.0154625272,-0.2524319208,-0.5479828328,9.6397600464
1520435238928553338,0.1956401462,0.0123284186,0.0034907066,-0.2031266446,-0.5323978474,9.6404270816
1520435238933566338,0.1785671075,0.0128564163,0.0213829191,-0.1886958320,-0.5407929542,9.6507541019
1520435238938581338,0.1630057312,0.0154210542,0.0406406223,-0.1634419100,-0.5515871849,9.6249516528
1520435238943597338,0.1484525455,0.0214885277,0.0577587685,-0.1333777172,-0.5767714753,9.6165485748
1520435238948611338,0.1301297479,0.0284330485,0.0732673094,-0.1249597432,-0.5923609564,9.5978875376
1520435238953627338,0.1158321774,0.0394621701,0.0874467764,-0.1237571755,-0.5935601905,9.6036877216
1520435238958641338,0.0995175320,0.0467076043,0.0997072559,-0.0876801441,-0.6271389322,9.5464242577
1520435238963657338,0.0829550259,0.0589174035,0.1079478061,0.0037150021,-0.6571245609,9.5676446420
1520435238968670338,0.0691560111,0.0690820381,0.1186025738,0.0349817626,-0.6595252769,9.5359647624
1520435238973685338,0.0551047723,0.0780788508,0.1300605536,0.0686536586,-0.6571296185,9.5065810833
1520435238978701338,0.0418084022,0.0894143194,0.1388294589,0.0866921743,-0.6823129723,9.4483228659
1520435238983716338,0.0282610430,0.1016267569,0.1465233166,0.1311871796,-0.7086975271,9.4665098075
1520435238988730338,0.0187328420,0.1144315515,0.1512381481,0.1203640702,-0.6655276289,9.4398437459
1520435238993746338,0.0086993618,0.1260742532,0.1545922912,0.1119460962,-0.6691243945,9.4050648707
1520435238998760338,-0.0020938170,0.1353943244,0.1546834990,0.1323897474,-0.6859139527,9.3804772324
1520435239003775338,-0.0149011266,0.1417990344,0.1550267557,0.1600488048,-0.7134963366,9.4336935328
1520435239008790338,-0.0246869147,0.1511122152,0.1578215556,0.1432128568,-0.6799190935,9.4721754126
1520435239013806338,-0.0329628791,0.1645170250,0.1563159440,0.1131486640,-0.6943064371,9.4829413667
1520435239018819338,-0.0440091171,0.1723793467,0.1566670490,0.1203640702,-0.7158915267,9.5119457833
1520435239023835338,-0.0510358479,0.1799547730,0.1559262798,0.1323897474,-0.7530658164,9.4921085350
1520435239028850338,-0.0593240871,0.1843266625,0.1543517526,0.0806793357,-0.7866377209,9.4542938434
1520435239033865338,-0.0666058568,0.1889874165,0.1538597651,0.0397920335,-0.7914310981,9.4976958190
1520435239038880338,-0.0728845365,0.1945336445,0.1493143916,-0.0191337845,-0.7758376833,9.4819841500
1520435239043894338,-0.0761518094,0.1971679371,0.1444706406,-0.0744518993,-0.7794307962,9.4732289390
1520435239048909338,-0.0801745626,0.1986363962,0.1396193975,-0.0816673055,-0.7938199193,9.4826103530
1520435239053925338,-0.0839508077,0.1983646593,0.1317783443,-0.0792621701,-0.8237986172,9.4361304182
1520435239058939338,-0.0842083399,0.1989706397,0.1231257885,-0.1057186598,-0.8357879609,9.4154810317
1520435239063955338,-0.0829597140,0.1957775571,0.1187702666,-0.0732493316,-0.8513793153,9.4663145306
1520435239068968338,-0.0822168496,0.1917166799,0.1119740959,-0.0936929827,-0.8225983529,9.4571883008
1520435239073984338,-0.0804675980,0.1899938285,0.1027589298,-0.0780596024,-0.8225995705,9.5104947569
1520435239078999338,-0.0759594263,0.1844847898,0.0932391838,-0.1081237952,-0.8453808970,9.5979703973
1520435239084013338,-0.0742088574,0.1827575679,0.0856472932,-0.1165417692,-0.8297914159,9.6387121697
1520435239089029338,-0.0724556972,0.1813144462,0.0807630845,-0.1309725818,-0.8345868537,9.7190452406
1520435239094044338,-0.0722156539,0.1757906220,0.0761210990,-0.1333777172,-0.8465780706,9.7551068067
1520435239099058338,-0.0737364626,0.1688084575,0.0717418109,-0.1646444777,-0.8201945461,9.7867632995
1520435239104073338,-0.0740031569,0.1586149996,0.0697706484,-0.2247728634,-0.8741511822,9.8978048482
1520435239109089338,-0.0772933955,0.1443489896,0.0647979585,-0.2019240768,-0.8837460851,9.9010782387
1520435239114104338,-0.0815829372,0.1332827166,0.0617454107,-0.1947086706,-0.9173225789,9.9161486213
1520435239119116338,-0.0813545571,0.1175531496,0.0597310761,-0.2355959728,-0.9233150966,9.9502546145
1520435239124133338,-0.0811301366,0.0989097373,0.0576945106,-0.2909140876,-0.8969296989,9.9681994810
1520435239129148338,-0.0841732125,0.0814378675,0.0529674460,-0.2440139468,-0.8873402283,9.9956250840
1520435239134163338,-0.0829450433,0.0636777438,0.0476891321,-0.1838855611,-0.8321844518,10.0159046327
1520435239139177338,-0.0832176770,0.0491135180,0.0456846233,-0.1429982589,-0.8357850575,10.0224830326
1520435239144193338,-0.0827406796,0.0322221535,0.0423082002,-0.0672364930,-0.8369900985,10.0240710712
1520435239149207338,-0.0820037193,0.0205707099,0.0408651471,-0.0275517585,-0.7974215553,10.0422405195
1520435239154222338,-0.0800109667,0.0092147853,0.0380692540,0.0265637886,-0.7650489786,10.0451686516
1520435239159238338,-0.0765146001,-0.0050536654,0.0349777839,0.1372000182,-0.7170919783,10.0730986117
1520435239164252338,-0.0725064857,-0.0129129165,0.0324753799,0.2213797581,-0.7051071303,10.1454826335
1520435239169266338,-0.0654742114,-0.0164089593,0.0332472723,0.2827107115,-0.6979170644,10.1634729628
1520435239174282338,-0.0612043777,-0.0190341169,0.0348426057,0.3211928783,-0.7410891168,10.2619227334
1520435239179297338,-0.0579376772,-0.0222519070,0.0399524563,0.3115723366,-0.6979193123,10.3444864983
1520435239184312338,-0.0546698751,-0.0240098607,0.0439912389,0.2875209823,-0.7039131412,10.3772664769
1520435239189327338,-0.0516545048,-0.0225444723,0.0412912946,0.2310002998,-0.7123027221,10.4417427174
1520435239194342338,-0.0536658167,-0.0222495048,0.0396739761,0.2887235500,-0.6643416009,10.4899441472
1520435239199356338,-0.0584389498,-0.0193295174,0.0367290699,0.2598619249,-0.5875943659,10.5656895879
1520435239204372338,-0.0622074129,-0.0158219966,0.0321634675,0.1528333985,-0.6115688387,10.6666991047
1520435239209387338,-0.0722615967,-0.0125988521,0.0240902135,0.1480231276,-0.5636028471,10.7352656447
1520435239214402338,-0.0865960386,-0.0134480236,0.0127472199,0.1119460962,-0.5060412970,10.7425335318
1520435239219416338,-0.1072207803,-0.0192495512,0.0000253724,0.0746664971,-0.5180297977,10.8021774236
1520435239224432338,-0.1192915059,-0.0174702768,-0.0131956353,0.1071358254,-0.4928503777,10.6856224356
1520435239229446338,-0.1411723968,-0.0256150278,-0.0216041996,0.1528333985,-0.4628754262,10.5921768936
1520435239234460338,-0.1592796221,-0.0293817067,-0.0321507855,0.1672642110,-0.4113135119,10.5536354008
1520435239239476338,-0.1761213913,-0.0314214390,-0.0345699897,0.1901129976,-0.3477608490,10.4441094981
1520435239244491338,-0.1891967124,-0.0352058164,-0.0378211710,0.1985309716,-0.2446354282,10.3602526348
1520435239249508338,-0.1962234001,-0.0279232315,-0.0380230715,0.2815081438,-0.1966762738,10.2687509839
1520435239254520338,-0.2012356552,-0.0197751750,-0.0347049399,0.2346080030,-0.1630966892,10.2447697166
1520435239259535338,-0.2024800549,-0.0124983384,-0.0319415702,0.2550516541,-0.1151326645,10.2770639878
1520435239264551338,-0.1959282515,-0.0008476818,-0.0291593226,0.2766978729,-0.1187317716,10.3314775706
1520435239269565338,-0.1858662268,0.0052695041,-0.0269669396,0.2803055761,-0.1139354909,10.4418414538
1520435239274580338,-0.1720305915,0.0116671679,-0.0201800541,0.2742927375,-0.1487100949,10.5232839667
1520435239279595338,-0.1549332659,0.0131074757,-0.0115432072,0.3404339617,-0.1738971951,10.5447454798
1520435239284610338,-0.1431249653,0.0049256560,-0.0013466455,0.4318291079,-0.1151464325,10.5833114924
1520435239289625338,-0.1245310318,-0.0055969650,0.0134188102,0.3933469411,-0.0779700822,10.6208384112
1520435239294640338,-0.1021747471,-0.0228265091,0.0305610471,0.4378419465,-0.0360036328,10.6773094510
1520435239299654338,-0.0858604154,-0.0488035942,0.0490005223,0.4342342433,-0.0539904582,10.7389557358
1520435239304670338,-0.0677945152,-0.0803162961,0.0673944918,0.4727164101,-0.0348072085,10.7478596162
1520435239309685338,-0.0507337672,-0.1121222332,0.0863291970,0.4173982953,-0.0527900065,10.7588748845
1520435239314700338,-0.0329232195,-0.1488901531,0.1084712602,0.4222085662,-0.0623835046,10.7158380927
1520435239319713338,-0.0176222259,-0.1821580726,0.1290213924,0.3873341025,-0.0491902438,10.6720032063
1520435239324728338,-0.0015668496,-0.2142565165,0.1482262872,0.3753084254,-0.0803669582,10.6128813180
1520435239329744338,0.0112178195,-0.2472216527,0.1641840294,0.3320159877,-0.0839610077,10.5575232983
1520435239334759338,0.0204959212,-0.2711530616,0.1794055837,0.2935338209,-0.0635726234,10.4439878738
1520435239339774338,0.0310368171,-0.2872020274,0.1892739098,0.3139774720,-0.0551802326,10.4019435201
1520435239344789338,0.0350497536,-0.2980042610,0.1975711109,0.2322028675,-0.0419833191,10.3446194035
1520435239349803338,0.0370593876,-0.3018060409,0.2029493949,0.2273925967,-0.0156018551,10.2888575885
1520435239354819338,0.0375659919,-0.2977213615,0.2010857634,0.2574567895,0.0083786118,10.2467043929
1520435239359834338,0.0360695485,-0.2898567553,0.2019602247,0.2791030083,0.0263640323,10.1709368048
1520435239364849338,0.0323238630,-0.2741314804,0.2050632770,0.3031543626,0.0695312143,10.1253369932
1520435239369863338,0.0220469640,-0.2549048667,0.2054996822,0.3151800397,0.0815216820,10.1159110976
1520435239374879338,0.0107650070,-0.2336302140,0.2027069651,0.3248005814,0.1162960050,10.1076485387
1520435239379894338,-0.0012628802,-0.2053575290,0.1980751810,0.3163826074,0.1402794691,10.0867884961
1520435239384909338,-0.0145406636,-0.1727167536,0.1942907144,0.2466336801,0.1894496587,10.0653387113
1520435239389923338,-0.0325978292,-0.1424038261,0.1886035097,0.1985309716,0.1990465285,10.0495275435
1520435239394938338,-0.0481380468,-0.1091760687,0.1829338685,0.1372000182,0.2530126242,10.0442611614
1520435239399952338,-0.0636798013,-0.0759432123,0.1753704061,0.0301714918,0.2446269770,9.9976631946
1520435239404969338,-0.0845001484,-0.0427080530,0.1661934695,-0.0167286490,0.2734099999,9.9887944761
1520435239409982338,-0.1040640445,-0.0091795599,0.1564753306,-0.0311594616,0.3261733024,9.9435598716
1520435239414998338,-0.1178587115,0.0176544525,0.1448015048,-0.0491979773,0.3057893201,9.9356203185
1520435239420012338,-0.1288925216,0.0424520416,0.1322953458,-0.0924904150,0.2590262154,9.8896015466
1520435239425027338,-0.1436930504,0.0663608884,0.1246593444,-0.1333777172,0.2842113487,9.8458134922
1520435239430043338,-0.1527177049,0.0891144744,0.1140277113,-0.1778727226,0.2578337248,9.7474900686
1520435239435058338,-0.1592364161,0.1045749621,0.1068529304,-0.1754675872,0.2206601844,9.6963685740
1520435239440072338,-0.1634974406,0.1174153321,0.0991128495,-0.1526188006,0.2206584048,9.6577954275
1520435239445087338,-0.1654948037,0.1287865538,0.0962272788,-0.1273648786,0.1858813657,9.6250435014
1520435239450101338,-0.1632230348,0.1378276445,0.0935865349,-0.1285674464,0.1547038083,9.5832484269
1520435239455117338,-0.1602006705,0.1439530001,0.0917337978,-0.0600210867,0.1067328528,9.5221965267
1520435239460131338,-0.1546636516,0.1491957170,0.0933868208,-0.0191337845,0.0683571748,9.4823230791
1520435239465147338,-0.1491304200,0.1503532231,0.0971730878,-0.0155260813,0.0287852598,9.5113801510
1520435239470161338,-0.1405817827,0.1497563192,0.1036458745,-0.0792621701,0.0060065558,9.4992391530
1520435239475177338,-0.1285260409,0.1439289839,0.1052022854,-0.0732493316,0.0072052279,9.4573422760
1520435239480191338,-0.1137046986,0.1366348826,0.1108006355,-0.0708441961,-0.0143794870,9.5084742480
1520435239485207338,-0.0956158561,0.1296327172,0.1166656870,-0.0696416284,-0.0011890360,9.5235575516
1520435239490221338,-0.0797894950,0.1220468967,0.1225304930,-0.0696416284,0.0048066661,9.5235517049
1520435239495237338,-0.0634695923,0.1103935447,0.1240345079,-0.1417956912,0.0503796218,9.5125881338
1520435239500249338,-0.0388548524,0.0987368857,0.1279580341,-0.0924904150,0.1043371008,9.6015406907
1520435239505265338,-0.0202721586,0.0885442561,0.1283867803,-0.1369854203,0.1415139193,9.6135589679
1520435239510281338,-0.0014415101,0.0757285358,0.1290655980,-0.1273648786,0.1834830848,9.6645587345
1520435239515295338,0.0201602039,0.0690380726,0.1278921453,-0.0973006858,0.2494334666,9.7153361284
1520435239520310338,0.0389904603,0.0573944462,0.1261449423,-0.0840724410,0.2973980533,9.7360791904
1520435239525326338,0.0510348173,0.0469217124,0.1214432282,-0.0299568939,0.2937964173,9.7553124181
1520435239530341338,0.0706323859,0.0440148183,0.1216551389,-0.0179312168,0.3225748509,9.7621401671
1520435239535355338,0.0839397488,0.0384968422,0.1167183378,-0.0143235136,0.3321676933,9.7702307049
1520435239540370338,0.0942337212,0.0329704003,0.1144925963,0.0482100075,0.3357602443,9.8579414745
1520435239545385338,0.1035255365,0.0306531649,0.1106699004,0.0975152837,0.2757993830,9.8656550418
1520435239550398338,0.1057745592,0.0227932247,0.1081707635,0.1588462370,0.2374221128,9.8987976775
1520435239555415338,0.1075199687,0.0128875684,0.1078213656,0.1925181330,0.2458134733,9.9774875394
1520435239560429338,0.1054951941,0.0032754619,0.1061284622,0.1925181330,0.2194323840,9.9705404011
1520435239565443338,0.0999542588,-0.0051739417,0.1049920771,0.1985309716,0.1846568434,9.9774886504
1520435239570460338,0.0936598230,-0.0133322561,0.1038593152,0.2514439509,0.1546742118,9.9816514372
1520435239575474338,0.0853613711,-0.0185855256,0.1057285228,0.2285951644,0.1474811488,9.9958265768
1520435239580490338,0.0735458843,-0.0212097001,0.1046482674,0.2706850343,0.1258933431,9.9873029403
1520435239585503338,0.0602194799,-0.0264583829,0.1040918964,0.2827107115,0.0743293683,9.9744525878
1520435239590519338,0.0471427906,-0.0328725053,0.1035261664,0.2610644926,0.1043095647,9.9943904925
1520435239595533338,0.0325621777,-0.0372511689,0.1043315277,0.2057463779,0.0791319242,9.9647377384
1520435239600548338,0.0129547140,-0.0401654094,0.1016402423,0.2622670604,0.0647378371,9.9549044812
1520435239605563338,-0.0023794386,-0.0424966640,0.0994865606,0.2382157061,0.0551465869,9.8842571559
1520435239610579338,-0.0194742238,-0.0462869872,0.0978661223,0.2742927375,0.0443515133,9.8513764975
1520435239615593338,-0.0363162085,-0.0468625126,0.0927525746,0.2394182738,0.0407568082,9.8191794214
1520435239620609338,-0.0518970848,-0.0459893642,0.0908943594,0.2610644926,0.0191705947,9.7713418764
1520435239625624338,-0.0662168017,-0.0410334265,0.0879827502,0.3103697689,-0.0287988623,9.7360444240
1520435239630638338,-0.0785253321,-0.0340304535,0.0826480558,0.2803055761,-0.0311948017,9.7316908133
1520435239635654338,-0.0893265086,-0.0270254330,0.0767694692,0.3248005814,-0.0539819351,9.7301177997
1520435239640669338,-0.0983682404,-0.0194354973,0.0703509700,0.3067620657,-0.0803616196,9.7094005099
1520435239645682338,-0.1046461203,-0.0103795433,0.0609624473,0.2610644926,-0.1391159412,9.6517954019
1520435239650697338,-0.1126801517,-0.0019194308,0.0561720258,0.3007492272,-0.1559069979,9.6398040663
1520435239655714338,-0.1184547361,0.0053782149,0.0505568738,0.3091672012,-0.1702973386,9.6467090267
1520435239660728338,-0.1219672351,0.0129681313,0.0449397443,0.3139774720,-0.2062719260,9.6501837185
1520435239665751338,-0.1247268921,0.0202691438,0.0385073539,0.3260031491,-0.2182642668,9.6628619448
1520435239670757338,-0.1279877003,0.0266870647,0.0353157784,0.2875209823,-0.2098672867,9.6574176015
1520435239675772338,-0.1299902971,0.0348559703,0.0313235702,0.2899261178,-0.2158631762,9.6527514622
1520435239680787338,-0.1320000643,0.0380727958,0.0267524777,0.2634696281,-0.2218568178,9.7087977300
1520435239685803338,-0.1367772825,0.0404209405,0.0197449368,0.2454311124,-0.2290502554,9.7403582086
1520435239690817338,-0.1407961192,0.0450960863,0.0143770558,0.1949232684,-0.1930721090,9.7535983243
1520435239695832338,-0.1423072445,0.0468627419,0.0073590014,0.1985309716,-0.1666913006,9.7244838848
1520435239700846338,-0.1475906200,0.0480517076,-0.0020914114,0.1792898882,-0.1630923808,9.7455862489
1520435239705863338,-0.1521195698,0.0501173074,-0.0123481929,0.1468205599,-0.1091285329,9.8109297266
1520435239710876338,-0.1569041230,0.0516116947,-0.0269376881,0.1408077214,-0.0887426774,9.8121305170
1520435239715891338,-0.1601802756,0.0504703718,-0.0364096194,0.1973284039,-0.0599677093,9.8301466185
1520435239720905338,-0.1627023082,0.0507920943,-0.0480362026,0.2297977321,-0.0359874297,9.8356179150
1520435239725922338,-0.1654778822,0.0499503655,-0.0604828491,0.2490388155,0.0059809866,9.7749582216
1520435239730937338,-0.1680005774,0.0488107948,-0.0704972724,0.2730901698,0.0227670793,9.7398434311
1520435239735952338,-0.1667576596,0.0456366514,-0.0818869875,0.2791030083,0.0311605940,9.7409388644
1520435239740967338,-0.1652576839,0.0450777828,-0.0905517027,0.3067620657,-0.0096123346,9.7139800947
1520435239745982338,-0.1604924935,0.0439403389,-0.1003091151,0.3115723366,0.0083743971,9.6976457190
1520435239750996338,-0.1552260697,0.0416368253,-0.1098058073,0.3187877429,-0.0072149903,9.6789963868
1520435239756012338,-0.1454367924,0.0399222236,-0.1209297297,0.3223954460,-0.0060161309,9.6963922616
1520435239761027338,-0.1348868951,0.0402344972,-0.1271696646,0.3079646335,-0.0096124282,9.6581854798
1520435239766040338,-0.1230834086,0.0379226170,-0.1326203032,0.2995466595,-0.0168066152,9.6664094389
1520435239771057338,-0.1112878375,0.0312465248,-0.1405392012,0.2526465187,-0.0635694389,9.6587765327
1520435239776071338,-0.0947071721,0.0283428197,-0.1419449652,0.2610644926,-0.0755614988,9.6180312523
1520435239781086338,-0.0778803083,0.0228218514,-0.1452650251,0.2382157061,-0.0575726129,9.6368304115
1520435239786101338,-0.0600469751,0.0175897477,-0.1475025451,0.2105566487,-0.1163283395,9.6638862364
1520435239791115338,-0.0402014087,0.0117669214,-0.1465016944,0.1913155653,-0.1055345771,9.6814951525
1520435239796131338,-0.0218624082,0.0050613381,-0.1425287077,0.1251743411,-0.1558933236,9.6845123308
1520435239801144338,-0.0045298771,-0.0019331099,-0.1396382608,0.0939075805,-0.1750771352,9.7057539629
1520435239806160338,0.0143064874,-0.0118408124,-0.1367728451,0.0385894657,-0.1702762651,9.7399898928
1520435239811175338,0.0308839772,-0.0200025507,-0.1333487986,0.0470074397,-0.1978571505,9.7213405489
1520435239816189338,0.0441874157,-0.0316541705,-0.1329213665,-0.0263491907,-0.2458170542,9.7523170737
1520435239821205338,0.0589993019,-0.0447708634,-0.1292612995,-0.0720467638,-0.2805885674,9.7365257614
1520435239826220338,0.0712984194,-0.0578892692,-0.1253260193,-0.1393905558,-0.2709901990,9.7766847843
1520435239831235338,0.0820922961,-0.0689678457,-0.1216429231,-0.1586316392,-0.2781835430,9.7594469219
1520435239836249338,0.0893667190,-0.0788727929,-0.1214614971,-0.2079369154,-0.3045607923,9.6960346372
1520435239841265338,0.0963954218,-0.0879182535,-0.1158620172,-0.2464190822,-0.2781767058,9.6835998900
1520435239846279338,0.1021569943,-0.1007339945,-0.1170527512,-0.2476216499,-0.2601895058,9.6882426308
1520435239851293338,0.1044058366,-0.1103495262,-0.1168597676,-0.2187600248,-0.2553951920,9.7518749496
1520435239856309338,0.1111836875,-0.1164695852,-0.1155663244,-0.2680653011,-0.2074257350,9.6279586802
1520435239861325338,0.1111686409,-0.1275421972,-0.1156508017,-0.2091394831,-0.2182225881,9.6610978312
1520435239866338338,0.1129195038,-0.1342462659,-0.1146230161,-0.1911009674,-0.2074317292,9.6876410422
1520435239871354338,0.1126551382,-0.1438620537,-0.1146959112,-0.1898983997,-0.2506008781,9.6841850015
1520435239876368338,0.1138956175,-0.1558090555,-0.1145188454,-0.1454033943,-0.2026387266,9.6755701332
1520435239881384338,0.1123781881,-0.1633878292,-0.1137622076,-0.1405931235,-0.2146305055,9.6766971503
1520435239886398338,0.1093461050,-0.1750422065,-0.1146571680,-0.1177443369,-0.2242254084,9.6974027001
1520435239891413338,0.1070718310,-0.1849530803,-0.1136463688,-0.0768570347,-0.2122371886,9.7365059293
1520435239896429338,0.1075662389,-0.1934139611,-0.1096535833,-0.0900852795,-0.2254267030,9.7505932751
1520435239901442338,0.1073056958,-0.2021643366,-0.1064732584,-0.0660339253,-0.2098397507,9.7979918746
1520435239906458338,0.1070492886,-0.2077087538,-0.1035390255,-0.1153392015,-0.2206281745,9.8868052465
1520435239911473338,0.1093031020,-0.2138283996,-0.1030488190,-0.2007215091,-0.1402791162,9.8585043610
1520435239916487338,0.1090455148,-0.2173200134,-0.1049688505,-0.3065474679,-0.1186863465,10.0105920719
1520435239921503338,0.1080479800,-0.2097356683,-0.1081557342,-0.3666758535,-0.0635212041,10.0587714372
1520435239926518338,0.1082917203,-0.2120520774,-0.1135849035,-0.3594604472,-0.0803097319,10.0482582820
1520435239931532338,0.1120669265,-0.2062156258,-0.1162529016,-0.3979426141,-0.0251462753,10.1508477222
1520435239936546338,0.1105547427,-0.2062016479,-0.1216610192,-0.4328170777,0.0300169003,10.1674033946
1520435239941563338,0.1077935018,-0.2000661735,-0.1281023019,-0.4917428957,0.0456103151,10.2167717870
1520435239946577338,0.1057849224,-0.1959751944,-0.1326667252,-0.4725018123,0.0635959229,10.2165669660
1520435239951591338,0.0989978350,-0.1956784554,-0.1356279054,-0.4532607288,0.0420098967,10.2733457870
1520435239956607338,0.0886964335,-0.1933470453,-0.1372142605,-0.4496530257,0.0204250881,10.2803045836
1520435239961622338,0.0773911107,-0.1907275582,-0.1377143419,-0.4568684320,0.0120316671,10.2536536884
1520435239966636338,0.0663311905,-0.1927715819,-0.1377093677,-0.4688941091,0.0000411995,10.2572688642
1520435239971652338,0.0537611917,-0.1956867078,-0.1390609919,-0.4881351925,-0.0683083061,10.1924427360
1520435239976667338,0.0416951941,-0.1991916902,-0.1377125367,-0.5001608697,-0.0850953354,10.1484146871
1520435239981682338,0.0291233410,-0.2059057414,-0.1350348726,-0.5109839791,-0.1270644073,10.1009130573
1520435239986696338,0.0152931511,-0.2120287747,-0.1355969794,-0.5386430365,-0.1558416233,10.0698324510
1520435239991712338,0.0064845351,-0.2225257057,-0.1343079456,-0.5326301979,-0.1966128660,10.0128686295
1520435239996727338,-0.0000612897,-0.2315619144,-0.1340941806,-0.5242122239,-0.2134014875,9.9837494660
1520435240001740338,-0.0061026233,-0.2385553206,-0.1349479710,-0.5458584427,-0.2086032399,9.9944147753
1520435240006756338,-0.0106324239,-0.2426335625,-0.1360528767,-0.5518712813,-0.1762259802,10.0025767361
1520435240011771338,-0.0086277492,-0.2455407927,-0.1382432085,-0.5278199271,-0.1834226960,9.9256481500
1520435240016785338,-0.0061152431,-0.2452455099,-0.1393278362,-0.5073762759,-0.1474500755,9.9161169322
1520435240021801338,-0.0031009352,-0.2469962777,-0.1379940460,-0.5013634374,-0.1414548417,9.9067554086
1520435240026816338,0.0034314700,-0.2481599844,-0.1377445272,-0.4700966768,-0.0994873620,9.9470851887
1520435240031831338,0.0107211120,-0.2481636851,-0.1353231491,-0.4183862652,-0.0695128788,9.9384176301
1520435240036845338,0.0170072286,-0.2475879243,-0.1318132744,-0.3943349109,-0.0934975605,9.9660983706
1520435240041862338,0.0232972148,-0.2449761139,-0.1269351086,-0.3871195046,-0.0539264884,9.9636652642
1520435240046876338,0.0300847413,-0.2452743097,-0.1234328365,-0.3738912598,-0.0119576039,9.9193341114
1520435240051890338,0.0378803641,-0.2444109442,-0.1183002637,-0.3558527441,0.0096255188,9.9075160479
1520435240056906338,0.0474370116,-0.2432606040,-0.1112749135,-0.2981294939,-0.0035695215,9.8616434538
1520435240061921338,0.0529705882,-0.2444458290,-0.1031776969,-0.2115446185,-0.0203642309,9.8306013176
1520435240066934338,0.0567527649,-0.2427302813,-0.0904557021,-0.2355959728,-0.0359511832,9.8169048927
1520435240071951338,0.0645537901,-0.2412994438,-0.0796372193,-0.2380011082,-0.0443449789,9.7867207454
1520435240076965338,0.0705992871,-0.2372468347,-0.0687954616,-0.2644575979,-0.0455420588,9.7416558118
1520435240081980338,0.0753884665,-0.2329026049,-0.0582196931,-0.2788884105,-0.1019005348,9.7104733446
1520435240086994338,0.0764060071,-0.2303088876,-0.0473797164,-0.2560396239,-0.1366773866,9.7009877078
1520435240092009338,0.0811985776,-0.2221708316,-0.0389394150,-0.2524319208,-0.1390759484,9.6765499082
1520435240097025338,0.0837234761,-0.2181115881,-0.0310671281,-0.2488242176,-0.1450719315,9.6532777607
1520435240102039338,0.0847479716,-0.2091015837,-0.0223426107,-0.2464190822,-0.1354789955,9.6451099882
1520435240107054338,0.0860249537,-0.1992173273,-0.0136118907,-0.2199625925,-0.1582647240,9.6297668230
1520435240112070338,0.0865479493,-0.1902111620,-0.0035337104,-0.2127471863,-0.1654601285,9.6099471614
1520435240117082338,0.0873225494,-0.1817913095,0.0078922866,-0.2019240768,-0.1678592523,9.6040334348
1520435240122100338,0.0843258637,-0.1745377434,0.0190458461,-0.2416088114,-0.1942372508,9.6044454272
1520435240127114338,0.0803143542,-0.1719357972,0.0261075148,-0.2392036759,-0.1714537701,9.6102105194
1520435240132128338,0.0775675168,-0.1652627164,0.0364445237,-0.2620524625,-0.1834433948,9.5790667221
1520435240137143338,0.0700427517,-0.1588734213,0.0432710807,-0.2969269262,-0.1786441170,9.6142658100
1520435240142159338,0.0610111579,-0.1530733134,0.0522603590,-0.3137628741,-0.1942316312,9.6504713448
1520435240147174338,0.0509755999,-0.1466922871,0.0617970422,-0.3269911190,-0.1750443542,9.6331492316
1520435240152189338,0.0381722421,-0.1403006889,0.0670101249,-0.3293962544,-0.1954295541,9.6134360733
1520435240157204338,0.0246159953,-0.1347908240,0.0749233976,-0.3558527441,-0.1750421064,9.6032144102
1520435240162218338,0.0123186576,-0.1292884795,0.0858103415,-0.3426244993,-0.2026233664,9.5554646472
1520435240167232338,-0.0042490861,-0.1217444750,0.0953680518,-0.3690809889,-0.2385955185,9.5882972694
1520435240172249338,-0.0210654432,-0.1115751944,0.1038640530,-0.3931323432,-0.2182082582,9.5815386280
1520435240177263338,-0.0326103780,-0.1063602969,0.1133946442,-0.4219939683,-0.2649724868,9.5876758734
1520435240182276338,-0.0461614342,-0.0973552746,0.1218756857,-0.4424376194,-0.2805597201,9.5553500300
1520435240187293338,-0.0602173697,-0.0877574820,0.1265744642,-0.4544632966,-0.3321218217,9.5485444985
1520435240192308338,-0.0750271154,-0.0787456676,0.1323523803,-0.4965531665,-0.3381142457,9.5466357342
1520435240197323338,-0.0868201735,-0.0682728353,0.1370536276,-0.5542764167,-0.3249192054,9.5646168735
1520435240202337338,-0.0991182011,-0.0580850287,0.1393186722,-0.5338327656,-0.3285182189,9.5527999560
1520435240207352338,-0.1104142482,-0.0513985415,0.1434489942,-0.5530738490,-0.3417072650,9.5413786601
1520435240212368338,-0.1189479801,-0.0432409369,0.1427154715,-0.5819354741,-0.3620904043,9.5556251877
1520435240217381338,-0.1289856355,-0.0330478735,0.1433530402,-0.5915560158,-0.3093274764,9.5033708993
1520435240222397338,-0.1375193282,-0.0266465889,0.1455821838,-0.6300381827,-0.3081253389,9.5223385950
1520435240227412338,-0.1458051916,-0.0205263923,0.1440209951,-0.6637100786,-0.3189149802,9.4715425267
1520435240232427338,-0.1475542510,-0.0126575139,0.1432726478,-0.6228227764,-0.3045284796,9.4467254996
1520435240237442338,-0.1508115426,-0.0047877694,0.1419860090,-0.6504818338,-0.2721495340,9.4434767119
1520435240242457338,-0.1528105836,0.0030766399,0.1428614038,-0.7178256257,-0.2589537444,9.4685243554
1520435240247471338,-0.1507933714,0.0089087602,0.1415494022,-0.7647257665,-0.2409629853,9.4480447213
1520435240252486338,-0.1505380228,0.0127004997,0.1402251061,-0.8272592876,-0.2325641320,9.4811852296
1520435240257501338,-0.1467651923,0.0167886442,0.1375437695,-0.8501080741,-0.2373589141,9.5220873414
1520435240262517338,-0.1379665577,0.0220501234,0.1326976236,-0.8404875324,-0.2277665400,9.5219843462
1520435240267530338,-0.1311751069,0.0278855712,0.1308356625,-0.9066287566,-0.2121725632,9.5307479306
1520435240272546338,-0.1198621629,0.0346071429,0.1251843271,-0.8873876732,-0.1582127427,9.5421294690
1520435240277561338,-0.1067891626,0.0407408073,0.1216896457,-0.9451109234,-0.1186366131,9.5833277619
1520435240282577338,-0.0919604617,0.0430813345,0.1203271642,-0.9463134912,-0.0898571493,9.6588507598
1520435240287591338,-0.0766343498,0.0433903798,0.1159721828,-0.9547314652,-0.0826616511,9.7088978692
1520435240292607338,-0.0587952065,0.0434075681,0.1121514029,-0.9847956580,-0.0598756416,9.7521676045
1520435240297620338,-0.0371873728,0.0428434643,0.1083191760,-1.0184675539,-0.0298945085,9.8721669399
1520435240302635338,-0.0183491030,0.0393688027,0.1028465768,-1.0040367414,0.0012820186,9.9405625697
1520435240307651338,0.0014999879,0.0379247571,0.1009047690,-1.0280880956,0.0228684194,9.9977206765
1520435240312665338,0.0225995944,0.0338667558,0.0959646149,-1.0785959396,0.0564482850,10.1085832230
1520435240317679338,0.0406834855,0.0306860971,0.0894134554,-1.1555602732,0.0588525601,10.1325728870
1520435240322695338,0.0597752064,0.0274970911,0.0861069797,-1.1663833826,0.0924293349,10.1407804987
1520435240327710338,0.0776066539,0.0231493390,0.0800884864,-1.1579654086,0.0924286792,10.1709143061
1520435240332725338,0.0951886530,0.0211369353,0.0724649691,-1.1687885181,0.0804381180,10.1989227999
1520435240337740338,0.1097582300,0.0199909478,0.0672886348,-1.1916373046,0.0672493528,10.1817258994
1520435240342755338,0.1240713645,0.0165203415,0.0596600694,-1.2289169037,0.0240832011,10.1658608370
1520435240347769338,0.1378834421,0.0145079178,0.0515024612,-1.2036629817,0.0000984257,10.1458819704
1520435240352785338,0.1499379216,0.0127825473,0.0447030726,-1.2229040651,-0.0586579565,10.1379915412
1520435240357800338,0.1569677026,0.0128071570,0.0365736274,-1.1844218983,-0.0874403237,10.1225371722
1520435240362814338,0.1634952348,0.0119523171,0.0303322678,-1.1723962212,-0.1042292263,10.0875721737
1520435240367829338,0.1697702371,0.0105160667,0.0235458369,-1.1699910858,-0.1402036263,10.0817731240
1520435240372844338,0.1705206680,0.0116986541,0.0173307734,-1.1507500024,-0.1857724609,10.0560631110
1520435240377860338,0.1657452924,0.0134552886,0.0135653371,-1.0773933719,-0.2133584039,10.0321331183
1520435240382875338,0.1619700509,0.0108386353,0.0108468713,-1.0677728302,-0.2469350851,9.9913971809
1520435240387889338,0.1549303866,0.0093833265,0.0092255487,-0.9703648454,-0.2997048502,10.0439591442
1520435240392904338,0.1531746781,0.0102495066,0.0119409440,-0.9619468714,-0.3644590886,10.0044274587
1520435240397918338,0.1398492343,0.0029487488,0.0159682916,-0.9787828194,-0.3632586370,9.9464829624
1520435240402933338,0.1280311522,-0.0014230044,0.0146041519,-0.9715674131,-0.3920385691,9.9324950688
1520435240407948338,0.1167227872,-0.0034765961,0.0181266894,-0.9763776840,-0.4352072497,9.9314218412
1520435240412964338,0.1011416874,-0.0040661979,0.0184217260,-0.9727699808,-0.4483980753,9.8918866944
1520435240417978338,0.0898349141,-0.0020272945,0.0171055607,-0.9896059288,-0.4280113769,9.8455449282
1520435240422993338,0.0737531534,-0.0008673291,0.0168737774,-0.9811879548,-0.4304103134,9.8036281491
1520435240428008338,0.0554016114,-0.0043645748,0.0144462581,-0.9703648454,-0.4148223308,9.8558040802
1520435240433023338,0.0403224075,-0.0046589530,0.0133898549,-0.9294775432,-0.4160246557,9.8298401106
1520435240438039338,0.0254894060,-0.0061071159,0.0079953582,-0.8765645638,-0.4220244788,9.8363037985
1520435240443053338,0.0096541964,-0.0069801878,0.0053126335,-0.8982107826,-0.3740571760,9.8027655413
1520435240448067338,-0.0049302780,-0.0104679440,-0.0000978915,-0.8657414544,-0.3488777559,9.8477485629
1520435240453083338,-0.0215254058,-0.0136629179,-0.0063140973,-0.8585260481,-0.3284929307,9.8383613021
1520435240458097338,-0.0376210566,-0.0180181341,-0.0144339501,-0.8513106418,-0.3069089650,9.7615685227
1520435240463113338,-0.0517025766,-0.0194579888,-0.0228058518,-0.7911822562,-0.2901256821,9.7295890124
1520435240468127338,-0.0612582557,-0.0197334470,-0.0300950786,-0.7707386051,-0.3225040658,9.6806115525
1520435240473143338,-0.0683034046,-0.0197070665,-0.0409038462,-0.7527000894,-0.3464882791,9.6362978932
1520435240478157338,-0.0753551515,-0.0240492687,-0.0525575978,-0.7178256257,-0.3728720846,9.6208763006
1520435240483172338,-0.0763660941,-0.0222744034,-0.0625525905,-0.7094076517,-0.3728727402,9.5847679026
1520435240488187338,-0.0803959668,-0.0231239087,-0.0722914444,-0.6937742714,-0.3824670812,9.5637065004
1520435240493203338,-0.0773914050,-0.0242569428,-0.0839394110,-0.6925717037,-0.4004542812,9.4974701301
1520435240498216338,-0.0726231763,-0.0221847864,-0.0952956448,-0.6528869692,-0.4208427592,9.4854823024
1520435240503232338,-0.0650902645,-0.0198201624,-0.1066547894,-0.6420638598,-0.4424281297,9.5086408841
1520435240508247338,-0.0537797314,-0.0116270995,-0.1177059273,-0.6793434589,-0.4052518731,9.4717788848
1520435240513262338,-0.0404586314,-0.0031411359,-0.1290291218,-0.6552921046,-0.3656821124,9.4912626427
1520435240518275338,-0.0278946817,0.0035991388,-0.1414464382,-0.6745331880,-0.3309055415,9.5123346040
1520435240523292338,-0.0130615233,0.0144131271,-0.1514019188,-0.6817485943,-0.3237101370,9.4996142348
1520435240528306338,0.0052930336,0.0287302072,-0.1632310779,-0.6829511620,-0.2781427073,9.5460672631
1520435240533321338,0.0196252644,0.0401238540,-0.1720989954,-0.7154204903,-0.2649496338,9.6195855060
1520435240538337338,0.0364730789,0.0532660640,-0.1806876956,-0.6925717037,-0.2289772006,9.6274630374
1520435240543352338,0.0508017422,0.0605737715,-0.1871518232,-0.6528869692,-0.1894086574,9.6607403570
1520435240548365338,0.0671443088,0.0678706117,-0.1892909503,-0.6601023755,-0.1978020784,9.7526281451
1520435240553382338,0.0764514726,0.0745760987,-0.1892570881,-0.6709254849,-0.1522338994,9.8073098216
1520435240558396338,0.0880149589,0.0774952014,-0.1895268724,-0.6793434589,-0.1282504353,9.8782591514
1520435240563411338,0.0985747866,0.0804088112,-0.1879009685,-0.6588998078,-0.0934769553,9.9407820282
1520435240568424338,0.1051105790,0.0815754523,-0.1873631192,-0.6625075109,-0.0515067595,10.0186398614
1520435240573441338,0.1088858637,0.0838992642,-0.1841057846,-0.6432664275,-0.0035426411,10.0730265728
1520435240578455338,0.1091400597,0.0835970516,-0.1800502860,-0.6119996670,0.0084463280,10.0808455556
1520435240583471338,0.1091441878,0.0838760528,-0.1754487827,-0.5927585836,0.0120422507,10.1352755325
1520435240588485338,0.1076441259,0.0850206041,-0.1678618049,-0.5675046616,0.0839887092,10.1884181879
1520435240593500338,0.1021188409,0.0835440331,-0.1613695509,-0.5614918230,0.0731959771,10.2627473997
1520435240598515338,0.0930769913,0.0800118234,-0.1494754065,-0.5494661459,0.0420173895,10.3416865408
1520435240603530338,0.0820211875,0.0738563654,-0.1375975360,-0.5218070885,0.0827860097,10.3541611505
1520435240608546338,0.0689611520,0.0720701591,-0.1254120396,-0.5242122239,0.1271543927,10.3401955676
1520435240613561338,0.0546453672,0.0696955925,-0.1113348345,-0.5109839791,0.1271533625,10.3667961229
1520435240618574338,0.0410790841,0.0658724114,-0.1002461498,-0.5025660051,0.1103647409,10.3376769594
1520435240623590338,0.0247511485,0.0620394061,-0.0859057804,-0.5422507396,0.1247575168,10.3043470196
1520435240628605338,0.0081698989,0.0599691781,-0.0769625237,-0.5771252033,0.0731971947,10.2884667324
1520435240633619338,-0.0081508153,0.0637223685,-0.0663519967,-0.6047842607,0.0731993489,10.2271423192
1520435240638635338,-0.0222150739,0.0642741290,-0.0568523076,-0.5963662867,0.0408219018,10.2131462285
1520435240643650338,-0.0367769629,0.0668580999,-0.0446306646,-0.6288356149,0.0432227115,10.1995141989
1520435240648663338,-0.0495861739,0.0682932474,-0.0383731907,-0.6540895369,0.0432246784,10.1521121029
1520435240653680338,-0.0646554435,0.0720636840,-0.0339875529,-0.6119996670,0.0312299960,10.1203362326
1520435240658694338,-0.0769637230,0.0743826516,-0.0312414398,-0.6083919638,0.0204374512,10.0389615647
1520435240663709338,-0.0862550131,0.0761127473,-0.0257999146,-0.5566815522,-0.0107442271,9.9978136117
1520435240668723338,-0.0940328805,0.0813371343,-0.0192523291,-0.4725018123,-0.0347335918,9.9412347347
1520435240673739338,-0.1010584352,0.0853962786,-0.0127150362,-0.4388299163,-0.0383336356,9.9072083265
1520435240678753338,-0.1050728889,0.0871298987,-0.0078244040,-0.4688941091,-0.0443269962,9.8610210414
1520435240683769338,-0.1055656817,0.0920730407,-0.0039980355,-0.4652864060,-0.0683100856,9.7843078120
1520435240688784338,-0.1070652967,0.0961430922,-0.0007175612,-0.4231965360,-0.0671142233,9.7606540866
1520435240693797338,-0.1095684408,0.0993291267,0.0060752073,-0.4436401871,-0.0683117715,9.7771242573
1520435240698812338,-0.1088099731,0.1010704449,0.0087926046,-0.4400324840,-0.0635154908,9.7329229945
1520435240703828338,-0.1055379017,0.1031034038,0.0117781037,-0.4280068069,-0.0455293210,9.7188426764
1520435240708843338,-0.1027695766,0.1025056922,0.0177205333,-0.3558527441,-0.0383400981,9.7239440768
1520435240713858338,-0.0977402206,0.1019110521,0.0228471247,-0.4099682912,0.0120280144,9.6988545251
1520435240718872338,-0.0967352096,0.0986923759,0.0279611758,-0.4231965360,0.0252195893,9.6931596982
1520435240723887338,-0.0942164622,0.1013085369,0.0306819753,-0.3967400463,0.0575943202,9.6510334324
1520435240728903338,-0.0874260778,0.1024643500,0.0352775464,-0.3546501764,0.0503961996,9.6146043089
1520435240733917338,-0.0826446765,0.1044928006,0.0401540664,-0.3738912598,0.0599908215,9.6821865844
1520435240738932338,-0.0748495358,0.1056504644,0.0442066787,-0.3390167961,0.1139494244,9.6573894945
1520435240743947338,-0.0685583226,0.1073801084,0.0520541801,-0.3390167961,0.1067545819,9.6515857908
1520435240748961338,-0.0607610728,0.1091161706,0.0577345140,-0.3017371970,0.1151456614,9.6721333398
1520435240753977338,-0.0532176269,0.1099823514,0.0617853700,-0.2752807073,0.1439229710,9.6555777491
1520435240758992338,-0.0456740085,0.1096771666,0.0679917009,-0.2307857020,0.1379238035,9.6830419636
1520435240764007338,-0.0368759660,0.1070377558,0.0755306429,-0.2019240768,0.1331249940,9.7048464547
1520435240769021338,-0.0283290890,0.1049832008,0.0822628601,-0.1405931235,0.1103365493,9.7007852824
1520435240774037338,-0.0145070457,0.1023523149,0.0873575545,-0.1622393423,0.0935502692,9.6684723135
1520435240779052338,-0.0011833818,0.1008780291,0.0957086256,-0.1478085298,0.0887525836,9.6311479236
1520435240784066338,0.0129000279,0.1028970107,0.1054377029,-0.0744518993,0.0827511682,9.6408990574
1520435240789082338,0.0239594972,0.1005520558,0.1121630298,-0.0347671647,-0.0011917522,9.6115410455
1520435240794096338,0.0380390766,0.0987786680,0.1234864824,0.0169432469,-0.0767416262,9.5890306613
1520435240799110338,0.0541435600,0.1057388626,0.1381194445,0.1095409608,-0.1558921060,9.5661258132
1520435240804127338,0.0662218951,0.1089102114,0.1524604282,0.1865052944,-0.2518293341,9.5154980467
1520435240809140338,0.0773083996,0.1181834875,0.1730725192,0.2598619249,-0.3177877707,9.5450640947
1520435240814156338,0.0891504746,0.1295003929,0.1923460422,0.2526465187,-0.4137184426,9.5754436150
1520435240819170338,0.0994875322,0.1443198777,0.2092141294,0.2598619249,-0.5108493788,9.6010352682
1520435240824185338,0.1088206726,0.1608909181,0.2247446926,0.2766978729,-0.5468249028,9.6752836906
1520435240829200338,0.1156454508,0.1832995909,0.2362661963,0.2285951644,-0.5648082627,9.7513087900
1520435240834216338,0.1174392382,0.2025032501,0.2469609428,0.2189746227,-0.5420238454,9.8001902591
1520435240839230338,0.1179746027,0.2228836100,0.2533381809,0.1528333985,-0.5120401835,9.8577498574
1520435240844245338,0.1162468742,0.2438531371,0.2570186068,0.0830844711,-0.4652682747,9.8653560102
1520435240849259338,0.1117542000,0.2648237666,0.2598925289,0.0421971689,-0.3861218223,9.9110004200
1520435240854274338,0.1032363066,0.2846367523,0.2592479296,0.0169432469,-0.2913877620,9.9471803109
1520435240859290338,0.0934558032,0.2997863648,0.2588406404,-0.0191337845,-0.2122416843,9.9462921423
1520435240864305338,0.0839230820,0.3134842521,0.2565279479,-0.1237571755,-0.1354885488,10.0076671301
1520435240869319338,0.0696057017,0.3219448169,0.2506670108,-0.1562265037,-0.0407539265,10.0218365163
1520435240874334338,0.0560385170,0.3257347835,0.2480156551,-0.1754675872,0.0263994358,9.9929047153
1520435240879350338,0.0414561988,0.3239960630,0.2423479227,-0.2175574571,0.0935545776,10.0327618037
1520435240884365338,0.0273679905,0.3173098298,0.2344770972,-0.1850881289,0.0755649424,10.1010298006
1520435240889380338,0.0175449977,0.3050867791,0.2273677366,-0.1874932643,0.0827599723,10.1126676342
1520435240894396338,0.0062118792,0.2908219891,0.2207867064,-0.1550239360,0.0455840903,10.1309821505
1520435240899409338,0.0004072880,0.2753887280,0.2160803373,-0.0876801441,-0.0143781758,10.1640873089
1520435240904425338,-0.0031411102,0.2570476068,0.2094537156,-0.0684390607,-0.0683409934,10.0930618671
1520435240909439338,-0.0064443725,0.2328730660,0.2049465326,-0.0648313576,-0.1199043126,10.0849420258
1520435240914454338,-0.0032066478,0.2148238023,0.1991211701,-0.0756544670,-0.1906527546,10.0827920745
1520435240919468338,-0.0027296896,0.1996887577,0.1927820806,-0.0828698733,-0.2673971798,9.9841549064
1520435240924485338,-0.0015004109,0.1863154274,0.1815851033,-0.0660339253,-0.3717237079,9.8946076836
1520435240929499338,0.0004816665,0.1729460346,0.1690339964,-0.0383748679,-0.4880424831,9.8096153846
1520435240934514338,0.0022268291,0.1691878622,0.1581799934,-0.0347671647,-0.5264152576,9.7224568917
1520435240939529338,0.0019608092,0.1648461331,0.1473252780,-0.0059055396,-0.5743831224,9.6501698188
1520435240944543338,0.0044590764,0.1605054869,0.1364654286,-0.0516031127,-0.6535228313,9.5832874380
1520435240949561338,0.0067088165,0.1582044341,0.1256216076,-0.1105289307,-0.6894924546,9.5432210275
1520435240954573338,0.0056886413,0.1556194579,0.1115350801,-0.1959112383,-0.7230617366,9.4952747819
1520435240959588338,0.0074316125,0.1533320483,0.0955518205,-0.1826829934,-0.7662318221,9.4812423951
1520435240964603338,0.0086770001,0.1542474863,0.0804055860,-0.2223677280,-0.7770209952,9.4456127234
1520435240969618338,0.0119319434,0.1548737843,0.0647123028,-0.2536344885,-0.7602305941,9.4470628281
1520435240974633338,0.0174491956,0.1572551030,0.0468637904,-0.2175574571,-0.7542377018,9.4374086781
1520435240979647338,0.0257292804,0.1575934424,0.0306178579,-0.2091394831,-0.7518400765,9.4617294270
1520435240984663338,0.0337552907,0.1544285132,0.0167806281,-0.1538213683,-0.7482469636,9.5204568281
1520435240989677338,0.0450454572,0.1489323308,0.0034606381,-0.0359697325,-0.7398621593,9.5471930021
1520435240994692338,0.0578414329,0.1405163380,-0.0074494701,-0.0215389199,-0.7110839131,9.5830509398
1520435240999706338,0.0744153277,0.1344154158,-0.0118556930,0.0470074397,-0.6763141794,9.5684041133
1520435241004723338,0.0877189898,0.1242265461,-0.0135815127,0.0902998774,-0.6571313044,9.6202604998
1520435241009738338,0.1040345839,0.1105386014,-0.0139868806,0.1179589348,-0.6547351778,9.6502046876
1520435241014753338,0.1205985326,0.0959824290,-0.0165637517,0.0806793357,-0.6091649382,9.6679552688
1520435241019766338,0.1331471024,0.0819921533,-0.0134472452,0.1095409608,-0.5887817989,9.7420316818
1520435241024783338,0.1444374178,0.0665437342,-0.0100689746,0.0987178514,-0.5911792368,9.7932736999
1520435241029797338,0.1539691275,0.0522638062,-0.0080312741,0.0662485231,-0.5540033548,9.8109856463
1520435241034811338,0.1632509889,0.0385643636,-0.0051770230,0.0121329761,-0.5456051572,9.8115041884
1520435241039828338,0.1687650811,0.0251504580,-0.0006902726,0.0241586532,-0.5575974980,9.8253445587
1520435241044841338,0.1682474330,0.0126141705,0.0016499812,-0.0155260813,-0.6079583050,9.8641306883
1520435241049855338,0.1679810406,0.0003708229,0.0034508996,-0.0504005450,-0.6235444144,9.8505396089
1520435241054873338,0.1636947921,-0.0107063766,0.0044565403,-0.0612236544,-0.6523229416,9.8622944581
1520435241059886338,0.1626771063,-0.0182754838,0.0016951480,-0.0973006858,-0.6918917658,9.8870892210
1520435241064902338,0.1571368336,-0.0252635942,-0.0010533971,-0.1237571755,-0.7170716541,9.8815605686
1520435241069916338,0.1500913632,-0.0305047165,-0.0035152575,-0.1333777172,-0.7614391005,9.9014539218
1520435241074932338,0.1435451973,-0.0357347155,-0.0100362397,-0.1562265037,-0.7782252869,9.8830983854
1520435241079946338,0.1369982866,-0.0403768465,-0.0184465970,-0.2199625925,-0.7962074293,9.8744391418
1520435241084961338,0.1297025798,-0.0424019110,-0.0249417251,-0.2139497540,-0.8369786720,9.8802310939
1520435241089976338,0.1231574293,-0.0455863909,-0.0336115129,-0.2211651602,-0.8765497440,9.8780156245
1520435241094991338,0.1203796089,-0.0490549510,-0.0444548919,-0.2367985405,-0.9029296157,9.7991677268
1520435241100005338,0.1188566127,-0.0531028741,-0.0563872341,-0.2055317800,-0.9281139998,9.8674544447
1520435241105021338,0.1168265298,-0.0609411783,-0.0675359054,-0.1766701549,-0.9832767071,9.8800108965
1520435241110035338,0.1132873838,-0.0676050655,-0.0821899806,-0.1141366338,-1.0024678242,9.8956909583
1520435241115051338,0.1107478897,-0.0783479423,-0.0968770459,-0.0744518993,-0.9928777916,9.9104032082
1520435241120064338,0.1094662501,-0.0893875388,-0.1094043007,-0.0744518993,-1.0540339532,9.8837335335
1520435241125080338,0.1069290846,-0.0995527456,-0.1221930986,-0.0022978365,-1.0720266791,9.9074537933
1520435241130096338,0.1036379835,-0.1079619278,-0.1379431626,0.0037150021,-1.0612348836,9.9364383428
1520435241135110338,0.1021031986,-0.1198735910,-0.1512882577,0.0325766272,-1.0960122037,9.8850569983
1520435241140125338,0.0978047812,-0.1332520011,-0.1613927835,0.0590331169,-1.1235944940,9.8511242072
1520435241145139338,0.0902459437,-0.1428480628,-0.1698390663,0.0987178514,-1.1355889890,9.8856139523
1520435241150154338,0.0831921229,-0.1509884618,-0.1777340755,0.1263769088,-1.1188031772,9.8597611983
1520435241155170338,0.0766429226,-0.1579645826,-0.1850800339,0.1131486640,-1.1271961299,9.8308445404
1520435241160185338,0.0688409212,-0.1631972592,-0.1907870448,0.0698562263,-1.1367858816,9.8022216783
1520435241165199338,0.0592805337,-0.1672621731,-0.1975640799,0.0963127160,-1.1271948187,9.7973062366
1520435241170214338,0.0512343568,-0.1687135052,-0.2008068110,0.0951101483,-1.0768308273,9.7682152305
1520435241175230338,0.0411751509,-0.1716203622,-0.2048685613,0.0506151429,-1.0696325193,9.7128583918
1520435241180245338,0.0293659564,-0.1692895428,-0.2064521160,0.0001072989,-1.0576371814,9.6866089998
1520435241185260338,0.0127825232,-0.1669620509,-0.2074857112,-0.0359697325,-1.0384481248,9.6602121311
1520435241190275338,0.0012223419,-0.1655016445,-0.2104291313,-0.1429982589,-1.0132578401,9.6786614843
1520435241195288338,-0.0118422843,-0.1599551611,-0.2160440869,-0.2283805665,-0.9832726797,9.6527339989
1520435241200303338,-0.0259107846,-0.1529499636,-0.2224576979,-0.2776858428,-0.9652817333,9.6961956924
1520435241205318338,-0.0392338762,-0.1508921803,-0.2310748686,-0.3005346293,-0.9652799538,9.6662023457
1520435241210334338,-0.0555694801,-0.1488457764,-0.2358987961,-0.3137628741,-0.9700754852,9.6477414754
1520435241215349338,-0.0703964952,-0.1447525343,-0.2431448755,-0.3642707181,-0.9700715515,9.6633409592
1520435241220363338,-0.0819581231,-0.1424092331,-0.2493281771,-0.3402193638,-0.9784674076,9.6677636192
1520435241225378338,-0.0957855765,-0.1432727763,-0.2552611863,-0.3426244993,-0.9724715182,9.6480247354
1520435241230393338,-0.1096114461,-0.1429707813,-0.2611853031,-0.3799040984,-0.9964514232,9.6426002592
1520435241235409338,-0.1234345949,-0.1432632103,-0.2627851318,-0.2897115199,-1.0204412562,9.5894492888
1520435241240423338,-0.1352444951,-0.1421008427,-0.2632953953,-0.2812935459,-1.0660092479,9.5847632125
1520435241245438338,-0.1435376191,-0.1418105220,-0.2640894080,-0.2632550302,-1.1199719718,9.5555866580
1520435241250452338,-0.1495616206,-0.1368608048,-0.2634993224,-0.1911009674,-1.1271724340,9.5130541883
1520435241255468338,-0.1533245991,-0.1348349733,-0.2588774797,-0.1141366338,-1.1499620963,9.5134894261
1520435241260483338,-0.1595992055,-0.1331073383,-0.2520888257,-0.0564133836,-1.1619579962,9.4548320791
1520435241265498338,-0.1603371028,-0.1270140536,-0.2425716344,0.0025124344,-1.1631617259,9.4368275414
1520435241270512338,-0.1600706398,-0.1212103029,-0.2335996249,0.0494125752,-1.1727585021,9.4700825736
1520435241275528338,-0.1585446954,-0.1148305751,-0.2219200438,0.1059332577,-1.1631697807,9.4253616109
1520435241280542338,-0.1567648137,-0.1069960115,-0.2094181764,0.1275794765,-1.1583749049,9.4948748798
1520435241285557338,-0.1534709840,-0.0962542962,-0.1941914194,0.1203640702,-1.1463829387,9.5123655761
1520435241290573338,-0.1494293305,-0.0904680078,-0.1781922175,0.1588462370,-1.0936237572,9.5177502831
1520435241295587338,-0.1466431597,-0.0841001710,-0.1619156898,0.1516308308,-1.0912249144,9.5329260462
1520435241300601338,-0.1451128675,-0.0774421705,-0.1453640595,0.1311871796,-1.0480542669,9.5342450799
1520435241305617338,-0.1410723941,-0.0696030786,-0.1342191220,0.1359974505,-1.0144787097,9.5690298368
1520435241310632338,-0.1385444651,-0.0652611918,-0.1230980613,0.0806793357,-0.9976864354,9.6183619447
1520435241315647338,-0.1405411030,-0.0617952308,-0.1119752687,0.0470074397,-1.0168700597,9.6198705397
1520435241320661338,-0.1415350076,-0.0594915004,-0.1019454190,0.0698562263,-1.0336598052,9.6510424011
1520435241325677338,-0.1427857897,-0.0580474533,-0.0973326897,0.0710587940,-1.0132745116,9.6847129920
1520435241330692338,-0.1465556720,-0.0598037932,-0.0949041143,0.0927050128,-0.9904925295,9.7146958263
1520435241335706338,-0.1498242348,-0.0633118855,-0.0911370814,0.1119460962,-0.9928923089,9.6982408687
1520435241340721338,-0.1548514032,-0.0656514867,-0.0887106186,0.1299846119,-0.9785040287,9.6771326696
1520435241345736338,-0.1603794952,-0.0659479510,-0.0876203901,0.2105566487,-0.9737137422,9.6705330337
1520435241350750338,-0.1646537315,-0.0676986603,-0.0873552485,0.2105566487,-0.9329429678,9.6797904278
1520435241355766338,-0.1664129997,-0.0679914625,-0.0870836586,0.2093540810,-0.8873755381,9.6971898573
1520435241360781338,-0.1684242685,-0.0679893364,-0.0881621084,0.2249874613,-0.8573982451,9.6702791471
1520435241365795338,-0.1721933511,-0.0662359502,-0.0905766821,0.2141643518,-0.8106309256,9.6773117521
1520435241370811338,-0.1681715544,-0.0641888557,-0.0927329552,0.2057463779,-0.7698594956,9.7517311431
1520435241375826338,-0.1679197694,-0.0630195770,-0.0940772591,0.2346080030,-0.7494763562,9.7979161011
1520435241380840338,-0.1631445585,-0.0606778890,-0.0973148929,0.2875209823,-0.6955191582,9.8566178000
1520435241385854338,-0.1573660889,-0.0600855711,-0.1000266403,0.2887235500,-0.6811295668,9.8844835178
1520435241390870338,-0.1535948893,-0.0583336018,-0.1008319404,0.2911286855,-0.6355624180,9.9088206958
1520435241395885338,-0.1480645548,-0.0568737848,-0.1011016387,0.2815081438,-0.5959900348,9.9507129304
1520435241400899338,-0.1402725309,-0.0554130816,-0.1013755376,0.2754953052,-0.5839981622,9.9984076645
1520435241405915338,-0.1334896579,-0.0554031390,-0.1040935981,0.2322028675,-0.5887913522,10.0336980425
1520435241410930338,-0.1241871163,-0.0530727905,-0.1024698068,0.2634696281,-0.5792006639,10.0473300837
1520435241415943338,-0.1176482855,-0.0486965490,-0.1035307789,0.2562542218,-0.5576155744,10.0601628495
1520435241420960338,-0.1143846938,-0.0486843426,-0.1075950348,0.2334054352,-0.6103759735,10.1092467425
1520435241425975338,-0.1050826265,-0.0431327388,-0.1118987992,0.2117592164,-0.5827940578,10.0943226674
1520435241430989338,-0.1008102328,-0.0407905193,-0.1154060455,0.2358105707,-0.6151727225,10.1487409042
1520435241436004338,-0.0993029102,-0.0361051947,-0.1237601992,0.2225823258,-0.6523450453,10.1256630303
1520435241441019338,-0.0972895165,-0.0296750083,-0.1307492185,0.2045438101,-0.6823221510,10.1142464001
1520435241446034338,-0.0950253141,-0.0258773822,-0.1339710696,0.1648590756,-0.6883147624,10.1529892641
1520435241451048338,-0.0967846175,-0.0229503859,-0.1390859437,0.1636565079,-0.7146957580,10.1123516562
1520435241456064338,-0.0990470871,-0.0191436055,-0.1463575823,0.1816950236,-0.7003074778,10.1040270406
1520435241461079338,-0.1000539447,-0.0167968976,-0.1522899404,0.1239717734,-0.7542643012,10.1081279355
1520435241466093338,-0.1045743245,-0.0118327495,-0.1568430272,0.0794767680,-0.7902350485,10.1248661181
1520435241471108338,-0.1080877957,-0.0065811937,-0.1597724824,0.1287820442,-0.8022302928,10.0755878581
1520435241476124338,-0.1103494342,-0.0039479641,-0.1640770084,0.1444154245,-0.8442014252,10.0580444599
1520435241481140338,-0.1098437982,-0.0007381668,-0.1656767633,0.1263769088,-0.8633862671,10.0512658815
1520435241486154338,-0.1070766962,0.0010097665,-0.1651274670,0.1504282631,-0.8885700891,10.1091635342
1520435241491169338,-0.1058087702,0.0068262944,-0.1607566045,0.1660616433,-0.8813764642,10.1845437094
1520435241496183338,-0.1045411538,0.0117657550,-0.1553102278,0.1528333985,-0.8729814510,10.2474200532
1520435241501197338,-0.1002598020,0.0143709503,-0.1482639610,0.1576436693,-0.8214187874,10.3228623084
1520435241506214338,-0.0937113074,0.0201786194,-0.1398447113,0.1468205599,-0.7686557658,10.4007798479
1520435241511228338,-0.0886695120,0.0245185770,-0.1276461342,0.0987178514,-0.7290803855,10.5092888497
1520435241516242338,-0.0851333965,0.0308998208,-0.1162408328,0.0578305492,-0.6703193203,10.6397896469
1520435241521258338,-0.0810989918,0.0352466690,-0.1067458478,-0.0131209459,-0.5815774030,10.7124466393
1520435241526272338,-0.0808369276,0.0381380313,-0.0983371609,-0.0552108159,-0.5156214016,10.7186027224
1520435241531287338,-0.0835934797,0.0407455689,-0.0931716471,-0.1057186598,-0.4532621659,10.7736542950
1520435241536302338,-0.0881098686,0.0439402853,-0.0898922414,-0.1850881289,-0.3932989631,10.7859898013
1520435241541317338,-0.0923747782,0.0488906917,-0.0893054229,-0.1598342069,-0.3489327343,10.7961600251
1520435241546331338,-0.0973939293,0.0561835338,-0.0930281538,-0.1778727226,-0.3177536784,10.7521437279
1520435241551346338,-0.1009139555,0.0567736656,-0.0962637243,-0.2019240768,-0.3309423499,10.7117156533
1520435241556362338,-0.1026769089,0.0576638839,-0.1024763436,-0.1646444777,-0.3309452533,10.7334335317
1520435241561377338,-0.1039336147,0.0605910771,-0.1075921511,-0.0792621701,-0.3777183797,10.7477559484
1520435241566391338,-0.1011680064,0.0620512680,-0.1083978073,0.0373868980,-0.4304896434,10.7617798802
1520435241571407338,-0.0926217762,0.0643893339,-0.1097486207,0.0698562263,-0.4496784190,10.7858875762
1520435241576421338,-0.0853341964,0.0649778719,-0.1108398931,0.1660616433,-0.4844609840,10.7931200902
1520435241581436338,-0.0727705331,0.0632308454,-0.1095238383,0.2165694873,-0.5288331134,10.8496167971
1520435241586452338,-0.0619602416,0.0658546260,-0.1084417161,0.2586593572,-0.5096501447,10.8247833877
1520435241591467338,-0.0473768648,0.0693460242,-0.1043839205,0.2622670604,-0.5072521449,10.8328809415
1520435241596481338,-0.0305328493,0.0740125879,-0.1035679839,0.2406208415,-0.5264367058,10.8226510463
1520435241601495338,-0.0169557616,0.0789707130,-0.1032848487,0.2261900290,-0.5516175307,10.7984110401
1520435241606510338,-0.0028698702,0.0894697117,-0.1045836836,0.2093540810,-0.5636076237,10.6753993451
1520435241611527338,0.0084463709,0.0976438354,-0.1086006282,0.1468205599,-0.5564079109,10.6085966427
1520435241616539338,0.0195125481,0.1078626514,-0.1144953657,0.1059332577,-0.5480107435,10.5590142392
1520435241621556338,0.0258033027,0.1186674648,-0.1222706106,0.0975152837,-0.5444126666,10.5404983633
1520435241626572338,0.0303370786,0.1315134660,-0.1308386646,0.0662485231,-0.4820549294,10.4628782442
1520435241631586338,0.0300947733,0.1449476499,-0.1420988635,0.0313740595,-0.4520737027,10.4480805860
1520435241636600338,0.0280917060,0.1578012893,-0.1544424252,0.0590331169,-0.4724612441,10.4118047859
1520435241641615338,0.0198087594,0.1709365675,-0.1640666368,0.0289689240,-0.4688614813,10.3528245626
1520435241646631338,0.0110227251,0.1814389900,-0.1699222801,0.0530202783,-0.4868504608,10.2979872357
1520435241651645338,-0.0000308871,0.1902038742,-0.1801157957,0.0939075805,-0.4652691177,10.2382988740
1520435241656660338,-0.0135939318,0.1986632775,-0.1854370411,0.0866921743,-0.4532771515,10.1802502132
1520435241661675338,-0.0269112682,0.2018727588,-0.1889049475,0.1071358254,-0.4760624117,10.0952369361
1520435241666689338,-0.0414880469,0.2027499431,-0.1921177590,0.1035281222,-0.4904518158,10.0592596207
1520435241671704338,-0.0568200433,0.2021677241,-0.1945286482,0.0770716326,-0.4940471766,10.0083863060
1520435241676720338,-0.0709016614,0.1969231166,-0.1967068944,0.0518177106,-0.5000409118,9.9528550491
1520435241681735338,-0.0849870235,0.1873004568,-0.1962130279,0.0626408200,-0.5024400356,9.9260227313
1520435241686749338,-0.0988264577,0.1724271465,-0.1935952765,0.1023255545,-0.4904517222,9.9035440359
1520435241691765338,-0.1139282824,0.1528897347,-0.1904696691,0.1468205599,-0.4748663621,9.8705557167
1520435241696779338,-0.1300318799,0.1324624784,-0.1816674002,0.2009361070,-0.4916585427,9.8247217457
1520435241701795338,-0.1431203384,0.1091109034,-0.1685642285,0.2045438101,-0.4616803131,9.7944416542
1520435241706810338,-0.1562134191,0.0813841899,-0.1538711277,0.2153669196,-0.4460923305,9.7152953184
1520435241711825338,-0.1672946155,0.0539460065,-0.1378268082,0.2285951644,-0.4329028161,9.6837758133
1520435241716838338,-0.1776233228,0.0256346932,-0.1220611039,0.2562542218,-0.4616843405,9.6103195920
1520435241721854338,-0.1826694308,0.0014055593,-0.1065446236,0.2177720550,-0.4448933774,9.5130576909
1520435241726869338,-0.1859513426,-0.0187420451,-0.0915413789,0.1335923151,-0.4364928383,9.4731938211
1520435241731883338,-0.1884842741,-0.0382876459,-0.0835692815,0.0951101483,-0.4173035944,9.4212531956
1520435241736899338,-0.1867397545,-0.0525808241,-0.0777294700,0.0530202783,-0.3849235249,9.3449297994
1520435241741913338,-0.1787146499,-0.0659871892,-0.0756822999,-0.0155260813,-0.4112992756,9.3525955768
1520435241746928338,-0.1701884295,-0.0752906642,-0.0822624087,-0.0636287899,-0.3633299122,9.2937476638
1520435241751943338,-0.1586475875,-0.0840043613,-0.0910080392,-0.0323620293,-0.3189641517,9.2620221800
1520435241756958338,-0.1418301288,-0.0927138055,-0.1005751086,-0.0287543262,-0.2913842030,9.2689330338
1520435241761972338,-0.1204857275,-0.0987990168,-0.1101305712,-0.0275517585,-0.2769946115,9.2398536978
1520435241766987338,-0.1009059536,-0.1060373436,-0.1245614853,-0.0708441961,-0.2913809249,9.1542904593
1520435241772003338,-0.0730261048,-0.1086131826,-0.1378900482,-0.0383748679,-0.2889851728,9.1260806292
1520435241777018338,-0.0443927946,-0.1097237910,-0.1541849008,-0.0083106751,-0.3069746207,9.1258055429
1520435241782032338,-0.0167689413,-0.1116987486,-0.1742721982,0.0229560855,-0.3429512685,9.1185634279
1520435241787048338,0.0176441087,-0.1133920468,-0.1897705939,0.0686536586,-0.3765307595,9.0623684674
1520435241792063338,0.0500472501,-0.1153804309,-0.2041852953,0.1420102891,-0.4113115450,9.0884176808
1520435241797077338,0.0842116828,-0.1159119316,-0.2183216024,0.1672642110,-0.4724696735,9.1045015262
1520435241802092338,0.1163678301,-0.1173293000,-0.2284026566,0.2045438101,-0.5192390534,9.1123192814
1520435241807107338,0.1440013433,-0.1193363086,-0.2365859346,0.2466336801,-0.5672079485,9.1259021054
1520435241812122338,0.1696261320,-0.1222277281,-0.2412550514,0.2670773312,-0.5540189960,9.1570681435
1520435241817136338,0.1947503539,-0.1210283062,-0.2502208460,0.2430259770,-0.5791990717,9.1724346722
1520435241822152338,0.2148494695,-0.1227607242,-0.2532475272,0.2430259770,-0.6259655482,9.1655074127
1520435241827166338,0.2304305261,-0.1218782811,-0.2540814325,0.2718876021,-0.6751325534,9.1885173133
1520435241832182338,0.2394841055,-0.1160434040,-0.2554065023,0.2670773312,-0.6595433533,9.1722789168
1520435241837197338,0.2490395729,-0.1128402603,-0.2532354167,0.2550516541,-0.6847243656,9.2096091300
1520435241842212338,0.2505553204,-0.1102317774,-0.2478072913,0.2273925967,-0.6763282284,9.2203294565
1520435241847226338,0.2505697436,-0.1023767785,-0.2431479878,0.2129617841,-0.6715305428,9.2797345815
1520435241852241338,0.2465659769,-0.0942392547,-0.2357735347,0.1636565079,-0.6631327198,9.3069356144
1520435241857256338,0.2345264930,-0.0840753878,-0.2245809422,0.1564411016,-0.6247596643,9.3464813203
1520435241862272338,0.2199722174,-0.0750773151,-0.2136631208,0.1359974505,-0.5671993318,9.4395956943
1520435241867285338,0.2026555914,-0.0643305614,-0.2032679187,0.0518177106,-0.5468073884,9.4380708816
1520435241872302338,0.1805629194,-0.0562154234,-0.1901783976,0.0397920335,-0.4904468519,9.4671865721
1520435241877316338,0.1584684440,-0.0492650951,-0.1773683148,0.0313740595,-0.4712599495,9.5148977002
1520435241882331338,0.1338648458,-0.0417431803,-0.1607614761,0.0277663563,-0.4292897537,9.5346483357
1520435241887346338,0.1047321566,-0.0356675771,-0.1487566320,0.0554254137,-0.4628678397,9.5913569146
1520435241892361338,0.0771148621,-0.0275677169,-0.1307870169,0.0037150021,-0.4424784251,9.6220560961
1520435241897376338,0.0494911068,-0.0217880064,-0.1168933750,-0.0179312168,-0.3825197181,9.6686940783
1520435241902391338,0.0193497881,-0.0192137819,-0.1032900656,0.0097278406,-0.3429502383,9.6637376980
1520435241907406338,-0.0072694776,-0.0146021295,-0.0883249993,0.0409946012,-0.3405543926,9.6448367246
1520435241912421338,-0.0348965261,-0.0088114925,-0.0784895458,0.0518177106,-0.3429535164,9.6610037331
1520435241917434338,-0.0605139797,-0.0050663155,-0.0662384746,0.0698562263,-0.3297643766,9.6794095978
1520435241922451338,-0.0858816282,-0.0016087825,-0.0553428227,0.0710587940,-0.2973876788,9.6572855855
1520435241927465338,-0.1082373407,-0.0001868459,-0.0455505166,0.0842870388,-0.2638127772,9.6559619444
1520435241932480338,-0.1320969375,0.0015142296,-0.0314244528,0.0951101483,-0.2038565990,9.6360416847
1520435241937495338,-0.1504346405,0.0008980498,-0.0216551759,0.1083383931,-0.2050567697,9.5859419084
1520435241942510338,-0.1652491456,0.0034862928,-0.0110563415,0.1263769088,-0.1930667704,9.5381067370
1520435241947525338,-0.1778108880,0.0011291693,-0.0032049591,0.0915024451,-0.2074537393,9.5221902004
1520435241952540338,-0.1866052611,-0.0032683543,0.0054354986,0.0458048720,-0.1738742484,9.4737922049
1520435241957555338,-0.1926357862,-0.0076633381,0.0135297306,0.0890973097,-0.1618862159,9.4605755460
1520435241962569338,-0.1964007484,-0.0085579077,0.0205642555,0.0951101483,-0.1990600373,9.4198782319
1520435241967583338,-0.1953971488,-0.0141134876,0.0278248891,0.1203640702,-0.2194473914,9.3940851375
1520435241972600338,-0.1873644385,-0.0240327080,0.0334158329,0.0662485231,-0.2146466150,9.4062286272
