#timestamp [ns],w_RS_S_x [rad s^-1],w_RS_S_y [rad s^-1],w_RS_S_z [rad s^-1],a_RS_S_x [m s^-2],a_RS_S_y [m s^-2],a_RS_S_z [m s^-2]
1520504428069562682,-0.0273859259,-0.0903772552,0.0220603768,0.1696693465,0.2374212699,9.7348300344
1520504428074579682,-0.0301476255,-0.0915577165,0.0271969904,0.1756821850,0.2386199420,9.7487160673
1520504428079594682,-0.0316551637,-0.0947788341,0.0328568006,0.2081515133,0.2206303068,9.7193639720
1520504428084610682,-0.0379417744,-0.0994507322,0.0355383583,0.2021386747,0.1726651582,9.7322528543
1520504428089626682,-0.0407079159,-0.1032507406,0.0395727806,0.1937207007,0.2026443244,9.7357919881
1520504428094641682,-0.0417205483,-0.1093731232,0.0406101463,0.2334054352,0.1810567060,9.7284539056
1520504428099657682,-0.0432327439,-0.1137495808,0.0424734216,0.2959389563,0.1270905166,9.6686285213
1520504428104673682,-0.0442365318,-0.1128765495,0.0427525037,0.2887235500,0.1582687296,9.6349661741
1520504428109690682,-0.0439866364,-0.1122863977,0.0400510242,0.2189746227,0.1582741619,9.6414557872
1520504428114705682,-0.0414719271,-0.1090714422,0.0368242601,0.2334054352,0.1342902295,9.5867179474
1520504428119721682,-0.0369456392,-0.1049815454,0.0336004315,0.1877078622,0.1151075418,9.5999650325
1520504428124738682,-0.0364385918,-0.0994348444,0.0298540942,0.1756821850,0.1175067592,9.5861340169
1520504428129753682,-0.0331634310,-0.0915581695,0.0269320452,0.1263769088,0.1390951269,9.5703228608
1520504428134768682,-0.0281286021,-0.0816338295,0.0213168318,0.1347948828,0.1103151011,9.5772418532
1520504428139786682,-0.0261135815,-0.0743309463,0.0148755737,0.1660616433,0.1079143851,9.5873991560
1520504428144800682,-0.0225868513,-0.0638207857,0.0079148773,0.1516308308,0.1151103516,9.5945054644
1520504428149817682,-0.0200662888,-0.0556493795,0.0036437222,0.1889104299,0.0983194822,9.5697539554
1520504428154833682,-0.0180528049,-0.0483413973,-0.0046913573,0.1768847527,0.0815324529,9.6059138393
1520504428159849682,-0.0172886918,-0.0372524644,-0.0105602899,0.1696693465,0.0551519255,9.6083340830
1520504428164865682,-0.0135130856,-0.0296611497,-0.0156498626,0.1985309716,0.0659419415,9.5952590541
1520504428169880682,-0.0140085442,-0.0200259896,-0.0228803065,0.1841001590,0.0623456441,9.6163216139
1520504428174896682,-0.0127527400,-0.0153400351,-0.0315045394,0.1167563671,0.0767405742,9.6250980727
1520504428179913682,-0.0160122661,-0.0057066864,-0.0384593035,0.1059332577,0.0827371192,9.5833603892
1520504428184928682,-0.0172695325,0.0010274449,-0.0505804042,0.1347948828,0.0551546417,9.6063492417
1520504428189945682,-0.0202865101,0.0060067523,-0.0605472092,0.1359974505,0.0659468118,9.6202727401
1520504428194959682,-0.0243062250,0.0106848118,-0.0669972738,0.1672642110,0.0863297639,9.6083270903
1520504428199976682,-0.0265689573,0.0147851620,-0.0750783270,0.1311871796,0.0863325736,9.6365696969
1520504428204992682,-0.0303414662,0.0159645204,-0.0807438976,0.1299846119,0.1007223524,9.6481888094
1520504428210007682,-0.0343595110,0.0212224352,-0.0861073324,0.1576436693,0.1175081641,9.6560382300
1520504428215024682,-0.0341082945,0.0232716949,-0.0896093342,0.1792898882,0.1450867080,9.6255849014
1520504428220040682,-0.0411533180,0.0209560727,-0.0963776980,0.1311871796,0.1486878757,9.6306981715
1520504428225056682,-0.0429152599,0.0224283317,-0.1023153252,0.1600488048,0.1690710150,9.5978573406
1520504428230072682,-0.0403993195,0.0262245994,-0.1049965513,0.1588462370,0.1534822832,9.6036949669
1520504428235088682,-0.0381392531,0.0268162673,-0.1079723105,0.2081515133,0.1438853197,9.5567386561
1520504428240103682,-0.0343731069,0.0271215120,-0.1125763685,0.1588462370,0.1822616533,9.5792618797
1520504428245119682,-0.0298434318,0.0335417565,-0.1155118665,0.0782742003,0.2098481583,9.5579384885
1520504428250135682,-0.0205451477,0.0364716280,-0.1201061846,0.0337791949,0.2158473258,9.5595278729
1520504428255152682,-0.0110049306,0.0344568021,-0.1279853127,0.0866921743,0.2314320303,9.5392412018
1520504428260166682,-0.0014617223,0.0344809395,-0.1355783333,0.0939075805,0.2542151364,9.5333380342
1520504428265183682,0.0085860164,0.0347915593,-0.1412762429,0.1011229868,0.2901887871,9.5099898446
1520504428270199682,0.0193907684,0.0347994350,-0.1426490415,0.1155537994,0.3093739100,9.5168035382
1520504428275215682,0.0304510375,0.0359642062,-0.1407668637,0.1396051536,0.3789221813,9.5165016154
1520504428280231682,0.0372439741,0.0391604394,-0.1364262770,0.1143512317,0.4280889056,9.4702137205
1520504428285247682,0.0452927815,0.0391395517,-0.1275131976,0.0566279814,0.4196994183,9.5288909463
1520504428290263682,0.0493100344,0.0332988678,-0.1221542089,0.0902998774,0.4005105490,9.5622840888
1520504428295278682,0.0533264052,0.0259976192,-0.1154536062,0.0866921743,0.3729306003,9.6065075691
1520504428300295682,0.0540845984,0.0236420717,-0.1062742306,0.1059332577,0.4304878420,9.6399663346
1520504428305311682,0.0578649325,0.0259491296,-0.0967943404,0.1143512317,0.4520717140,9.6177826159
1520504428310325682,0.0623934432,0.0238849866,-0.0870786508,0.1504282631,0.4664585893,9.6592546145
1520504428315343682,0.0611483221,0.0241394573,-0.0735467993,0.1143512317,0.4568682757,9.6410208176
1520504428320358682,0.0611521327,0.0206144342,-0.0630221864,0.0770716326,0.4904471110,9.6808638273
1520504428325375682,0.0631646207,0.0168031847,-0.0541268057,0.0566279814,0.4820547203,9.6985031580
1520504428330390682,0.0641696278,0.0121210300,-0.0465889569,0.0626408200,0.4640671456,9.6787057256
1520504428335406682,0.0646751148,0.0088919589,-0.0376863297,0.1359974505,0.4448751856,9.7105504573
1520504428340422682,0.0656868964,0.0088704998,-0.0295718197,0.0927050128,0.4460776978,9.7376999809
1520504428345437682,0.0641814242,0.0065206221,-0.0228231567,0.0674510909,0.4340882604,9.7774703749
1520504428350455682,0.0629267687,0.0044651411,-0.0171549208,0.0626408200,0.4041101245,9.7717357089
1520504428355470682,0.0619214832,0.0035869515,-0.0158069937,0.0963127160,0.4089040637,9.7853490174
1520504428360485682,0.0604187868,0.0047402440,-0.0114665667,0.1612513725,0.4160938486,9.7928449360
1520504428365501682,0.0579093935,0.0026784432,-0.0036316301,0.1744796173,0.3969065716,9.8031941854
1520504428370518682,0.0571605504,0.0041248725,0.0001685281,0.1456179922,0.4124976449,9.7639470109
1520504428375533682,0.0579248242,0.0096520043,0.0037264632,0.1600488048,0.3657300445,9.7510685709
1520504428380548682,0.0594369257,0.0116871877,0.0056330457,0.1227692057,0.3405509990,9.7537802717
1520504428385565682,0.0584356900,0.0146006391,0.0056571434,0.1287820442,0.3261608457,9.7793029455
1520504428390582682,0.0602055590,0.0218830278,0.0067916371,0.1071358254,0.2901883188,9.7749001409
1520504428395596682,0.0587110915,0.0297410781,0.0101010115,0.0866921743,0.2937873323,9.7913656342
1520504428400613682,0.0572114373,0.0355674495,0.0104188194,0.0915024451,0.3441508555,9.8505390434
1520504428405629682,0.0539552435,0.0434335518,0.0104849101,0.0109304084,0.3333648669,9.8478473743
1520504428410644682,0.0514478928,0.0498532249,0.0067508427,-0.0035004042,0.3249720078,9.8282395732
1520504428415662682,0.0509549786,0.0586018481,0.0041130097,0.0025124344,0.3105818544,9.8514379590
1520504428420677682,0.0472014248,0.0711335481,0.0028628738,-0.0167286490,0.2913971062,9.8365360780
1520504428425693682,0.0401778617,0.0810400506,0.0021398892,-0.1117314984,0.2830105224,9.8119017958
1520504428430708682,0.0326435660,0.0865828725,-0.0013209671,-0.1947086706,0.2302548063,9.8638952296
1520504428435725682,0.0238610444,0.0970736401,-0.0028478761,-0.2764832750,0.2362568773,9.8949010696
1520504428440740682,0.0150724539,0.1040721640,-0.0060247375,-0.3342065253,0.1811009135,9.8966788458
1520504428445755682,0.0042633582,0.1052494940,-0.0119477857,-0.3907272078,0.1175508731,9.9123988299
1520504428450772682,-0.0040349917,0.1052644558,-0.0186960313,-0.4039554526,0.0348112141,9.9346890050
1520504428455788682,-0.0108274853,0.1035302442,-0.0249193239,-0.4147785620,-0.0335389471,9.9290502831
1520504428460803682,-0.0188909864,0.0930627457,-0.0344535261,-0.4195888329,-0.0994912957,9.8954592423
1520504428465820682,-0.0242008404,0.0773630637,-0.0483616122,-0.4376273486,-0.1390615248,9.9595913238
1520504428470836682,-0.0262410300,0.0666313103,-0.0671077994,-0.4845274894,-0.1834260677,9.9031460328
1520504428475851682,-0.0230052968,0.0591257934,-0.0928735272,-0.5181993853,-0.2733589770,9.8256978299
1520504428480869682,-0.0185164958,0.0510467410,-0.1218925854,-0.4845274894,-0.3800850972,9.7755019695
1520504428485884682,-0.0110169819,0.0432777369,-0.1574081228,-0.3690809889,-0.3297301907,9.7464377169
1520504428490899682,-0.0004972324,0.0337382973,-0.1842851307,-0.2355959728,-0.1870428766,9.7833500548
1520504428495914682,0.0075149781,0.0259359823,-0.2073564903,-0.2704704365,-0.1019011904,9.7266614246
1520504428500931682,0.0170267095,0.0117223415,-0.2299384663,-0.2019240768,-0.0035770143,9.7096283352
1520504428505947682,0.0260452012,-0.0004736574,-0.2443875704,-0.1057186598,0.0551733737,9.7179317847
1520504428510962682,0.0370797524,-0.0109314879,-0.2547688813,0.0337791949,0.1151195303,9.6363275983
1520504428515979682,0.0451005133,-0.0231526473,-0.2600175581,0.1083383931,0.2026509743,9.6645701219
1520504428520995682,0.0556433146,-0.0327685721,-0.2584872469,0.1444154245,0.3021768196,9.6617976272
1520504428526011682,0.0692000670,-0.0461829693,-0.2526627022,0.1865052944,0.4460703923,9.6670583493
1520504428531026682,0.0782407717,-0.0602088596,-0.2368240045,0.2189746227,0.5695793271,9.7003240455
1520504428536042682,0.0905527559,-0.0727845602,-0.2180042539,0.1853027267,0.7254702046,9.7481476751
1520504428541060682,0.0983438624,-0.0859557284,-0.1951223600,0.1071358254,0.8477886157,9.8138692926
1520504428546074682,0.1053824288,-0.1008878825,-0.1676531242,0.0963127160,0.9329284287,9.9149981390
1520504428551090682,0.1126773945,-0.1132025764,-0.1382705261,0.1047306900,0.9593088624,10.0090241384
1520504428556107682,0.1174636373,-0.1231908208,-0.1075127466,0.0951101483,0.9713010159,9.9835389185
1520504428561122682,0.1204941756,-0.1308494067,-0.0764633695,0.0746664971,0.9988828379,9.9569816987
1520504428566138682,0.1230289848,-0.1315062196,-0.0486062556,0.0385894657,0.9808985413,9.9561882465
1520504428571154682,0.1248095094,-0.1295277553,-0.0255975599,0.0446023043,0.9209410519,9.9073781421
1520504428576170682,0.1233252623,-0.1255086940,-0.0033788729,0.0866921743,0.8813661398,9.8698184468
1520504428581186682,0.1190759049,-0.1173902078,0.0110302403,0.0951101483,0.8585818161,9.8488401377
1520504428586202682,0.1165888109,-0.1054764778,0.0230300734,0.1420102891,0.8238030911,9.8960654535
1520504428591218682,0.1108386624,-0.0897716581,0.0334415987,0.1853027267,0.7566478556,9.8747909633
1520504428596233682,0.1015671704,-0.0734723361,0.0389942781,0.1660616433,0.6835017884,9.9017788848
1520504428601250682,0.0905352262,-0.0568764912,0.0423880806,0.1804924559,0.6367341879,9.9377104909
1520504428606265682,0.0772317054,-0.0431757101,0.0384591135,0.2153669196,0.5503933613,9.9397795246
1520504428611281682,0.0611614785,-0.0309314778,0.0339830731,0.2598619249,0.5192122449,9.9568089997
1520504428616297682,0.0433300898,-0.0210226531,0.0308452446,0.2514439509,0.5156154792,9.9905966178
1520504428621313682,0.0257404617,-0.0148871601,0.0222671314,0.3091672012,0.4688445070,9.9807832277
1520504428626329682,-0.0001451054,-0.0102081966,0.0123405751,0.3115723366,0.4352683879,9.9970625744
1520504428631346682,-0.0232670048,-0.0072822848,0.0045599135,0.2791030083,0.3909027210,9.9718547095
1520504428636361682,-0.0446308199,-0.0034742458,-0.0059228048,0.1636565079,0.3405478146,9.9474603402
1520504428641377682,-0.0682590099,-0.0022924674,-0.0153391469,0.1035281222,0.3393533572,9.9259660272
1520504428646393682,-0.0898738259,-0.0019978952,-0.0196255199,0.0506151429,0.3609420058,10.0054857904
1520504428651409682,-0.1079800006,-0.0069388533,-0.0269344475,-0.0071081073,0.3561499398,9.9769987117
1520504428656425682,-0.1223118590,-0.0104308816,-0.0307221638,-0.0347671647,0.4185073960,9.9853421300
1520504428661440682,-0.1343833962,-0.0165517688,-0.0318286295,-0.0864775764,0.4329011085,9.9277242176
1520504428666457682,-0.1444506546,-0.0258712707,-0.0351276500,-0.0431851387,0.3969235240,9.8517985588
1520504428671472682,-0.1504853823,-0.0255691374,-0.0399840517,-0.0083106751,0.3849294036,9.7991743276
1520504428676488682,-0.1494757883,-0.0226563551,-0.0394225960,-0.0179312168,0.3981206976,9.7306886120
1520504428681504682,-0.1459521475,-0.0179899106,-0.0404757443,-0.0588185190,0.3873316182,9.6555577509
1520504428686520682,-0.1384032365,-0.0095317066,-0.0423190978,-0.0335645970,0.4101133194,9.6146146889
1520504428691537682,-0.1298552421,-0.0042725112,-0.0463531393,-0.0443877064,0.4197072857,9.6228456874
1520504428696552682,-0.1155308521,-0.0022191948,-0.0493401858,0.0373868980,0.4125060743,9.6023003124
1520504428701568682,-0.0976848951,0.0007023693,-0.0496216382,0.1516308308,0.4292851425,9.6441712876
1520504428706584682,-0.0871346528,-0.0013280883,-0.0515506234,0.0927050128,0.4412811361,9.5982473838
1520504428711599682,-0.0770998515,-0.0115116820,-0.0557052888,0.0854896066,0.3969135024,9.6704138048
1520504428716616682,-0.0522257484,-0.0123651620,-0.0598163521,0.0999204191,0.3981115189,9.6202999848
1520504428721631682,-0.0404299656,-0.0219689397,-0.0626171088,0.1263769088,0.3417498585,9.7130689488
1520504428726648682,-0.0256161780,-0.0301160702,-0.0648712591,0.1035281222,0.3549421827,9.7307106415
1520504428731664682,-0.0118114119,-0.0405924853,-0.0679529648,0.1059332577,0.3057772380,9.7295730303
1520504428736679682,0.0062709737,-0.0484513219,-0.0685876839,0.0686536586,0.3081784223,9.6880963660
1520504428741696682,0.0170623923,-0.0592290443,-0.0684194613,0.0590331169,0.2722049589,9.7207651174
1520504428746711682,0.0341394924,-0.0679660704,-0.0677062534,0.0554254137,0.2877940654,9.6742992730
1520504428751728682,0.0502082296,-0.0790345666,-0.0670089632,-0.0083106751,0.2662145017,9.6319413628
1520504428756743682,0.0647695266,-0.0895194276,-0.0668455183,-0.0395774356,0.2314418646,9.6462253325
1520504428761758682,0.0783226370,-0.1020436456,-0.0669663141,-0.1021109567,0.1954725222,9.6317612042
1520504428766775682,0.0966505114,-0.1151516758,-0.0660182401,-0.1057186598,0.1714899947,9.5888203799
1520504428771791682,0.1102029632,-0.1276737086,-0.0669506735,-0.1153392015,0.1834821482,9.6597931081
1520504428776807682,0.1247594184,-0.1425329797,-0.0654678454,-0.2091394831,0.2098705430,9.6362753540
1520504428781822682,0.1400738239,-0.1521368358,-0.0677340445,-0.2680653011,0.2242648175,9.6438077335
1520504428786838682,0.1528698310,-0.1652361056,-0.0708338911,-0.2416088114,0.2422498633,9.6121547954
1520504428791853682,0.1639158925,-0.1733905403,-0.0709166733,-0.2043292123,0.2422469598,9.6454941133
1520504428796871682,0.1752183965,-0.1792203562,-0.0685472245,-0.3065474679,0.2614411677,9.6511189095
1520504428801887682,0.1840038271,-0.1856229993,-0.0702357431,-0.2861038167,0.2590412946,9.6915973006
1520504428806902682,0.1905334645,-0.1873629192,-0.0724255836,-0.3197757127,0.2806284447,9.7081740094
1520504428811916682,0.1963126398,-0.1856021495,-0.0762106222,-0.3065474679,0.3094067846,9.7289357808
1520504428816934682,0.1988306893,-0.1812274833,-0.0772641268,-0.2812935459,0.2962142731,9.7159192539
1520504428821950682,0.1990910953,-0.1745255407,-0.0772134625,-0.3330039576,0.2986165813,9.7629059908
1520504428826967682,0.1978455587,-0.1654887421,-0.0787654887,-0.3305988221,0.3190017812,9.8081863161
1520504428831982682,0.1948398287,-0.1579124690,-0.0792431796,-0.3738912598,0.3489836636,9.7934705933
1520504428836998682,0.1895743067,-0.1468309980,-0.0832070896,-0.3738912598,0.3825595954,9.8120321550
1520504428842013682,0.1817975998,-0.1345857020,-0.0868868941,-0.3017371970,0.3681642907,9.8473703463
1520504428847030682,0.1717623202,-0.1226443314,-0.0862359869,-0.2752807073,0.3993398812,9.9005410541
1520504428852045682,0.1609766215,-0.1074951128,-0.0866414091,-0.3017371970,0.4197273289,9.9577237404
1520504428857061682,0.1491829086,-0.0955566167,-0.0851755972,-0.2812935459,0.4353145622,9.9575095530
1520504428862077682,0.1316094560,-0.0830354308,-0.0845062421,-0.2740781396,0.4269200173,9.9923118267
1520504428867094682,0.1122747985,-0.0725568110,-0.0830375438,-0.2560396239,0.4544988421,10.0258115307
1520504428872109682,0.0934359250,-0.0649823700,-0.0851091065,-0.2091394831,0.4712831553,10.0636894132
1520504428877125682,0.0708296704,-0.0597579644,-0.0806983516,-0.2127471863,0.4856731214,10.1473848610
1520504428882141682,0.0489669820,-0.0588894628,-0.0817332610,-0.2127471863,0.4976645256,10.1601567511
1520504428887157682,0.0283646101,-0.0571550564,-0.0795172840,-0.2392036759,0.5276450967,10.1627093168
1520504428892172682,0.0077633791,-0.0557171336,-0.0754097088,-0.2247728634,0.5300422537,10.0742435769
1520504428897190682,-0.0140933307,-0.0522341839,-0.0734486056,-0.2247728634,0.5336396749,10.0103221514
1520504428902205682,-0.0294099787,-0.0437936806,-0.0720029365,-0.2271779988,0.5192501772,9.9696845552
1520504428907221682,-0.0454764812,-0.0344887886,-0.0670321014,-0.2428113791,0.4976668671,9.9059398516
1520504428912236682,-0.0557606918,-0.0237261664,-0.0615197936,-0.2452165145,0.4892730715,9.8745935603
1520504428917252682,-0.0627779274,-0.0120844685,-0.0573596135,-0.2692678688,0.4928723660,9.8446084106
1520504428922268682,-0.0690402119,-0.0001532761,-0.0523869728,-0.2632550302,0.5168547061,9.8166350436
1520504428927283682,-0.0722865106,0.0135339609,-0.0498415074,-0.2632550302,0.4784822126,9.7864567197
1520504428932300682,-0.0715012939,0.0347973140,-0.0467046175,-0.2788884105,0.4820808514,9.7226874599
1520504428937316682,-0.0739897405,0.0499352132,-0.0417145237,-0.3125603064,0.4497066825,9.6800474473
1520504428942331682,-0.0706890735,0.0723621752,-0.0374912251,-0.2981294939,0.4305193118,9.5950891874
1520504428947348682,-0.0653841239,0.0930540011,-0.0378842790,-0.2836986813,0.4065353794,9.5891613938
1520504428952364682,-0.0613435876,0.1079176441,-0.0383194610,-0.2620524625,0.3909448680,9.5866416163
1520504428957380682,-0.0562988715,0.1207361618,-0.0366077043,-0.2127471863,0.3945384492,9.5989417844
1520504428962395682,-0.0462303820,0.1306369760,-0.0327631458,-0.1862906966,0.3681552994,9.6498443326
1520504428967412682,-0.0389359023,0.1335442068,-0.0292373533,-0.1947086706,0.3513679891,9.6336726234
1520504428972428682,-0.0321462235,0.1335315681,-0.0235684910,-0.1634419100,0.3345775880,9.6717354132
1520504428977443682,-0.0218417876,0.1329462798,-0.0211571598,-0.1754675872,0.3501673501,9.6392972316
1520504428982459682,-0.0140538134,0.1306153420,-0.0201072293,-0.2079369154,0.3429750364,9.6245124128
1520504428987476682,-0.0052589346,0.1271083334,-0.0150098696,-0.2091394831,0.3561656747,9.5454854662
1520504428992491682,0.0070511443,0.1244906970,-0.0150527468,-0.1959112383,0.3489698019,9.5581473101
1520504428997507682,0.0171049871,0.1250737621,-0.0137142401,-0.1935061029,0.3189911040,9.5163159511
1520504429002523682,0.0238966967,0.1291521617,-0.0123429889,-0.2572421916,0.3489745785,9.4913399187
1520504429007539682,0.0326956371,0.1338272296,-0.0158408515,-0.2692678688,0.3837505874,9.5274495210
1520504429012554682,0.0397395785,0.1420004081,-0.0201204077,-0.2560396239,0.3249916764,9.5041351839
1520504429017571682,0.0477905618,0.1510459486,-0.0235835239,-0.2512293531,0.3597663741,9.5121894605
1520504429022587682,0.0528243283,0.1577541324,-0.0251650028,-0.2885089522,0.3333881882,9.5044430350
1520504429027603682,0.0591158238,0.1665075992,-0.0286270749,-0.3462322024,0.3573754923,9.5212515063
1520504429032618682,0.0618760338,0.1688637967,-0.0375424388,-0.3281936867,0.3046119088,9.5490188363
1520504429037634682,0.0658930867,0.1703412338,-0.0445729842,-0.3474347701,0.3166048116,9.5689508710
1520504429042650682,0.0686532457,0.1700633156,-0.0491796215,-0.3173705773,0.3549749637,9.5697829697
1520504429047666682,0.0704071547,0.1694958044,-0.0545982526,-0.3257885513,0.3046117215,9.6129133437
1520504429052682682,0.0726564439,0.1628057728,-0.0587117725,-0.3245859836,0.3333909980,9.6907372194
1520504429057698682,0.0721389840,0.1549520339,-0.0639112344,-0.3245859836,0.3357892788,9.6837620170
1520504429062712682,0.0746335424,0.1430135371,-0.0667125071,-0.2752807073,0.3621665281,9.6739592326
1520504429067730682,0.0761179423,0.1305057177,-0.0746567311,-0.2319882697,0.3897433861,9.6630516602
1520504429072746682,0.0781077038,0.1171108298,-0.0777387317,-0.2211651602,0.3753528581,9.7047975291
1520504429077761682,0.0768375744,0.1083746291,-0.0799674578,-0.1417956912,0.3477664468,9.7238083374
1520504429082778682,0.0773226204,0.0964324310,-0.0816828131,-0.0792621701,0.3633504020,9.7731566631
1520504429087796682,0.0785654754,0.0862337364,-0.0814924088,-0.0251466230,0.3909264170,9.8156023670
1520504429092809682,0.0740257679,0.0719439243,-0.0778052964,-0.0275517585,0.4005197277,9.8272378620
1520504429097826682,0.0742601698,0.0585359640,-0.0762847497,-0.0215389199,0.4292986296,9.8166919770
1520504429102842682,0.0747467447,0.0436617098,-0.0712586885,-0.0059055396,0.4137085865,9.7967985654
1520504429107857682,0.0717166728,0.0287809782,-0.0643322718,0.0133355438,0.4029148241,9.8047568162
1520504429112872682,0.0704438932,0.0141996047,-0.0601123582,0.1131486640,0.4089027524,9.7956444422
1520504429117889682,0.0711885374,0.0025226660,-0.0520863049,0.1251743411,0.3753258840,9.7595336705
1520504429122906682,0.0739439644,-0.0103255790,-0.0416379646,0.1323897474,0.3729270412,9.7641143547
1520504429127920682,0.0739380994,-0.0196724652,-0.0333221806,0.1720744819,0.3597334057,9.7474709352
1520504429132937682,0.0774483951,-0.0301820543,-0.0255629148,0.1949232684,0.3453419411,9.7193711163
1520504429137953682,0.0791965646,-0.0424384545,-0.0186253582,0.2201771904,0.3213571658,9.7563373034
1520504429142967682,0.0799409501,-0.0523583448,-0.0138325171,0.2346080030,0.3153603398,9.7050683555
1520504429147985682,0.0806844614,-0.0608118429,-0.0125456573,0.2057463779,0.3261548514,9.6948794572
1520504429153000682,0.0814279767,-0.0678018625,-0.0136825951,0.2141643518,0.3069679490,9.7041133829
1520504429158016682,0.0824257859,-0.0712893418,-0.0169576897,0.2105566487,0.3333493193,9.7250413637
1520504429163031682,0.0826723803,-0.0736152205,-0.0188697624,0.2454311124,0.3345457436,9.7154035961
1520504429168049682,0.0859284055,-0.0788464788,-0.0235151256,0.2285951644,0.3297504931,9.7295178717
1520504429173064682,0.0864202769,-0.0834938657,-0.0289625463,0.2550516541,0.3309475730,9.7397184867
1520504429178081682,0.0909358778,-0.0858078726,-0.0346701958,0.2899261178,0.3453345420,9.7335542883
1520504429183095682,0.0951989880,-0.0904596102,-0.0379602502,0.3187877429,0.3681159622,9.7657911802
1520504429188112682,0.0961999179,-0.0927866504,-0.0393326313,0.2827107115,0.3765127550,9.7940256014
1520504429193126682,0.0989615705,-0.0927768262,-0.0425843160,0.3572699097,0.4268708458,9.7700078966
1520504429198144682,0.1019773799,-0.0913128947,-0.0447431684,0.3560673420,0.4232735182,9.8037252843
1520504429203160682,0.1042458008,-0.0863584716,-0.0447095765,0.4005623473,0.4184734911,9.7858647153
1520504429208176682,0.1087815407,-0.0779094618,-0.0435713244,0.4113854568,0.4460528779,9.7427331486
1520504429213191682,0.1135673917,-0.0703345072,-0.0424402084,0.3969546442,0.4448548614,9.7091726040
1520504429218208682,0.1158403484,-0.0604192629,-0.0450742830,0.3885366702,0.4232709894,9.6209526470
1520504429223224682,0.1211253314,-0.0516618193,-0.0501577636,0.3885366702,0.4424572362,9.5744481794
1520504429228239682,0.1233943364,-0.0417334632,-0.0576616643,0.3837263994,0.4112799598,9.5873089859
1520504429233255682,0.1291890443,-0.0277309012,-0.0627060629,0.4137905922,0.3609137205,9.5905519036
1520504429238271682,0.1347273530,-0.0163457994,-0.0696638237,0.4101828891,0.3369311930,9.5906104056
1520504429243286682,0.1400143628,-0.0049607961,-0.0766211179,0.3608776128,0.2913676970,9.6097290510
1520504429248304682,0.1435418849,0.0061321336,-0.0835773681,0.3500545034,0.2733814336,9.6017169290
1520504429253319682,0.1478255459,0.0183887114,-0.0897144884,0.3813212639,0.2230151006,9.6061102856
1520504429258335682,0.1518535094,0.0277328023,-0.0964144646,0.3320159877,0.2230189407,9.6507516631
1520504429263350682,0.1516021753,0.0309525023,-0.1018004619,0.3175851752,0.2494011539,9.6252992314
1520504429268367682,0.1528599123,0.0359247423,-0.1085286504,0.2971415240,0.2721864142,9.6487188789
1520504429273383682,0.1566264976,0.0362285301,-0.1125916167,0.2995466595,0.2637922439,9.6568386619
1520504429278398682,0.1591403719,0.0391535580,-0.1163616956,0.2670773312,0.2913750025,9.6780463948
1520504429283414682,0.1609035958,0.0408967269,-0.1141872570,0.2610644926,0.3033668750,9.7001739618
1520504429288430682,0.1599035480,0.0446843319,-0.1141564900,0.1889104299,0.3081690563,9.7682759372
1520504429293445682,0.1594095752,0.0516802774,-0.1151843860,0.1552385339,0.3501415936,9.7976163507
1520504429298463682,0.1594226420,0.0612959668,-0.1151110242,0.0542228460,0.3597425844,9.8299681075
1520504429303479682,0.1534011104,0.0703352654,-0.1182774580,0.0770716326,0.3657365070,9.9064413657
1520504429308494682,0.1468747857,0.0793816513,-0.1241484172,0.1167563671,0.3393523269,9.9897551890
1520504429313509682,0.1393413212,0.0837509225,-0.1246421611,0.1372000182,0.3501429985,10.0313828614
1520504429318526682,0.1295414588,0.0843298517,-0.1246195127,0.1492256953,0.3777222916,10.0103203248
1520504429323542682,0.1164669727,0.0808354020,-0.1273273790,0.1396051536,0.4304852195,10.0336053935
1520504429328558682,0.1046556220,0.0814171858,-0.1286537264,0.0975152837,0.4760558337,10.0084034685
1520504429333574682,0.0888183425,0.0782093955,-0.1300015062,0.0963127160,0.4964413146,9.9816659839
1520504429338589682,0.0765025436,0.0764555356,-0.1297214294,0.1576436693,0.5336098911,10.0379778302
1520504429343604682,0.0634298570,0.0726624170,-0.1297260599,0.1612513725,0.5503975760,10.0727906630
1520504429348621682,0.0495992280,0.0665408406,-0.1308292585,0.2057463779,0.5228138809,10.0444930158
1520504429353637682,0.0382871269,0.0630361536,-0.1294822035,0.1768847527,0.5060281628,10.0006288376
1520504429358654682,0.0272250936,0.0589502529,-0.1286811532,0.1396051536,0.5048319258,9.9731014088
1520504429363668682,0.0186713440,0.0525393596,-0.1297963760,0.1131486640,0.5144271097,9.8606216018
1520504429368685682,0.0108714557,0.0493485600,-0.1362994630,0.0758690649,0.5072351706,9.8284514438
1520504429373701682,0.0063374016,0.0473333196,-0.1460462759,-0.0059055396,0.5132372416,9.7676479114
1520504429378717682,0.0060756470,0.0453190246,-0.1555304771,-0.0347671647,0.4940532427,9.7168132082
1520504429383733682,0.0025455180,0.0444791857,-0.1687873611,-0.0504005450,0.4844613369,9.7506769033
1520504429388748682,0.0020331311,0.0453895639,-0.1823070532,-0.0936929827,0.4352999513,9.7778755392
1520504429393764682,0.0010248309,0.0500826451,-0.1939030905,-0.1261623109,0.4604844290,9.7932748910
1520504429398781682,-0.0007342412,0.0573993485,-0.2060188116,-0.1093263629,0.4724745220,9.8407472289
1520504429403795682,-0.0029952955,0.0650065111,-0.2178608303,-0.0973006858,0.4832658492,9.8278360708
1520504429408812682,-0.0055066803,0.0734884572,-0.2299662589,-0.1706573163,0.4904664050,9.8634073819
1520504429413828682,-0.0115338729,0.0837173321,-0.2420518149,-0.1237571755,0.5228395437,9.8652436004
1520504429418844682,-0.0170659481,0.0881172565,-0.2536416742,-0.1321751495,0.4544891952,9.8084471344
1520504429423860682,-0.0203389721,0.0910633297,-0.2660584872,-0.0852750087,0.4065199255,9.7824702438
1520504429428876682,-0.0248675299,0.0919568356,-0.2738892479,-0.0828698733,0.3633506829,9.7778403541
1520504429433892682,-0.0311589627,0.0902279200,-0.2820072952,-0.0371723002,0.3489574388,9.7681124423
1520504429438908682,-0.0369490758,0.0867472520,-0.2887868850,-0.0624262221,0.3381671418,9.7393151737
1520504429443922682,-0.0387216225,0.0797664459,-0.2937067981,-0.0756544670,0.3201810657,9.7545693408
1520504429448940682,-0.0410027924,0.0690003577,-0.2997368614,-0.0985032535,0.2938017560,9.6908995449
1520504429453956682,-0.0455446875,0.0576447870,-0.3036028033,-0.1021109567,0.2926028965,9.6525850789
1520504429458971682,-0.0438076715,0.0451326954,-0.3099242186,-0.1309725818,0.3057956890,9.6284481145
1520504429463987682,-0.0390515530,0.0340736090,-0.3143462980,-0.1526188006,0.2842128473,9.6089234064
1520504429469004682,-0.0375654007,0.0200964836,-0.3177023571,-0.1694547486,0.3105952478,9.5881429606
1520504429474019682,-0.0340711864,0.0055424758,-0.3229604175,-0.1898983997,0.3753504229,9.5789816506
1520504429479035682,-0.0260517468,-0.0081377916,-0.3274085720,-0.1971138060,0.4005329338,9.6475938181
1520504429484051682,-0.0202900370,-0.0189050997,-0.3318302952,-0.1610367746,0.3909370006,9.6623598925
1520504429489067682,-0.0165440888,-0.0349239444,-0.3341239329,-0.1417956912,0.4089226084,9.6865600945
1520504429494082682,-0.0092816741,-0.0526919032,-0.3356258055,-0.1333777172,0.4053245315,9.7411024330
1520504429499099682,-0.0047798536,-0.0687170084,-0.3354859303,-0.0540082481,0.3969243669,9.7647431077
1520504429504115682,-0.0012856943,-0.0873686104,-0.3340114666,0.0037150021,0.4221018202,9.7595081331
1520504429509131682,-0.0013059354,-0.1033998584,-0.3322399150,0.0037150021,0.4268983819,9.8257456611
1520504429514146682,-0.0008204582,-0.1182704704,-0.3285665832,0.0037150021,0.4796605605,9.8256942102
1520504429519162682,0.0006715355,-0.1316815807,-0.3256956406,0.0085252729,0.4508808157,9.8245133101
1520504429524178682,-0.0006000523,-0.1439253221,-0.3238928553,0.0001072989,0.4652711564,9.8048247662
1520504429529194682,-0.0006104022,-0.1555989140,-0.3172181314,0.0073227052,0.4592748923,9.7698960640
1520504429534210682,0.0003878775,-0.1637711271,-0.3121418726,0.0181458146,0.4376895217,9.7361095919
1520504429539226682,0.0003780647,-0.1716414231,-0.3111197123,-0.0059055396,0.4340939737,9.7026450264
1520504429544241682,0.0006208170,-0.1821501068,-0.3041660168,-0.0455902742,0.4820626814,9.7180923911
1520504429549258682,0.0036309418,-0.1882774700,-0.3007012057,-0.0540082481,0.5024487242,9.7634780619
1520504429554274682,0.0046278611,-0.1961524712,-0.2977870910,-0.0227414876,0.5156368337,9.7329451249
1520504429559288682,0.0066371030,-0.1987821570,-0.2948348277,-0.0119183782,0.5743938715,9.7397553455
1520504429564304682,0.0076469126,-0.1973335818,-0.2915790284,-0.0022978365,0.5719948414,9.7326911800
1520504429569321682,0.0116779850,-0.1912194873,-0.2891048981,0.0409946012,0.5743897505,9.6753224055
1520504429574338682,0.0142035460,-0.1856989506,-0.2828447711,0.0421971689,0.6079655887,9.6961965501
1520504429579354682,0.0144701932,-0.1766761298,-0.2789886797,0.1035281222,0.5719865993,9.7002832483
1520504429584369682,0.0182559493,-0.1664842073,-0.2759418677,0.0842870388,0.5540009915,9.6911909176
1520504429589385682,0.0205320698,-0.1557013653,-0.2761343599,0.0758690649,0.5563999280,9.7145133934
1520504429594400682,0.0205480377,-0.1449245083,-0.2744288304,0.0746664971,0.5647940046,9.7702998229
1520504429599417682,0.0208125365,-0.1347237661,-0.2751631268,0.0830844711,0.5719881915,9.8132101978
1520504429604434682,0.0193150386,-0.1271483592,-0.2751025263,0.1311871796,0.5791792877,9.8127349795
1520504429609450682,0.0165604270,-0.1213275791,-0.2728885634,0.1949232684,0.5743777620,9.8516321833
1520504429614465682,0.0117984161,-0.1134686234,-0.2703847593,0.2057463779,0.5887666041,9.8666206771
1520504429619481682,0.0062763498,-0.1099800025,-0.2681834472,0.1889104299,0.5935644771,9.8505098552
1520504429624496682,0.0010070328,-0.1059106994,-0.2651665180,0.1841001590,0.5911665709,9.8156946955
1520504429629513682,-0.0050197914,-0.1056347896,-0.2602832674,0.1949232684,0.5815726045,9.8469765914
1520504429634529682,-0.0135653630,-0.1079750408,-0.2581208163,0.1792898882,0.5671841370,9.8238999102
1520504429639545682,-0.0188398745,-0.1088643737,-0.2532478583,0.1696693465,0.5887694139,9.8530261014
1520504429644559682,-0.0261270231,-0.1123813255,-0.2467678988,0.1636565079,0.5503973887,9.8926349399
1520504429649576682,-0.0326573662,-0.1118098575,-0.2435047671,0.1540359662,0.5707835252,9.8776008302
1520504429654593682,-0.0389374220,-0.1118203316,-0.2405170942,0.1540359662,0.5599912614,9.8404227477
1520504429659608682,-0.0464672484,-0.1098047181,-0.2326416999,0.1913155653,0.5719797621,9.8783989481
1520504429664623682,-0.0555009513,-0.1045830087,-0.2252801431,0.2201771904,0.5707783739,9.8711463323
1520504429669641682,-0.0610185366,-0.1002311607,-0.2190139733,0.1889104299,0.5503954218,9.8528762393
1520504429674656682,-0.0677939373,-0.0973389129,-0.2119449477,0.1540359662,0.5599912614,9.8648277708
1520504429679672682,-0.0755732592,-0.0941585882,-0.2037896484,0.1275794765,0.5504001985,9.8546353411
1520504429684687682,-0.0778178910,-0.0863132165,-0.1958795936,0.1263769088,0.5264174837,9.8174818264
1520504429689704682,-0.0815788896,-0.0828304624,-0.1912466355,0.1275794765,0.5120277049,9.7756469711
1520504429694718682,-0.0865986289,-0.0819750318,-0.1850080762,0.1179589348,0.4592662756,9.8153049569
1520504429699735682,-0.0903642928,-0.0825745748,-0.1793240577,0.1239717734,0.4556683860,9.7594670299
1520504429704751682,-0.0931241931,-0.0840537049,-0.1714842082,0.1023255545,0.4520726506,9.7620055168
1520504429709767682,-0.0946263642,-0.0834875521,-0.1655249520,0.1191615025,0.4316859522,9.7060786150
1520504429714783682,-0.0993934873,-0.0826363936,-0.1576635840,0.1335923151,0.5108280962,9.7093474098
1520504429719799682,-0.0996351185,-0.0797415860,-0.1506066931,0.1384025859,0.5108277216,9.6825712786
1520504429724817682,-0.0998797448,-0.0803492202,-0.1414121121,0.1396051536,0.4772516961,9.7000244744
1520504429729830682,-0.1003704754,-0.0759983168,-0.1340730932,0.1359974505,0.4964382238,9.7221216152
1520504429734847682,-0.0985984659,-0.0728208067,-0.1235006164,0.1432128568,0.5240178916,9.7638616724
1520504429739863682,-0.1013464480,-0.0673147209,-0.1126314080,0.1179589348,0.5048336117,9.7943419309
1520504429744878682,-0.0995698594,-0.0594692308,-0.1041877289,0.1384025859,0.4820483514,9.7744087151
1520504429749894682,-0.0982931870,-0.0504620417,-0.0943814947,0.1227692057,0.4736555860,9.7873526497
1520504429754911682,-0.0982754315,-0.0443742892,-0.0827013364,0.1239717734,0.4628632286,9.7629464457
1520504429759926682,-0.0959966922,-0.0394541024,-0.0699520873,0.1119460962,0.4580676035,9.7770139011
1520504429764941682,-0.0922099796,-0.0327777334,-0.0598977590,0.1576436693,0.4328820955,9.7498643541
1520504429769958682,-0.0871679176,-0.0272678671,-0.0493135649,0.1311871796,0.4136979092,9.7652484462
1520504429774975682,-0.0823809807,-0.0240869901,-0.0395583265,0.1179589348,0.3873178502,9.7258900328
1520504429779990682,-0.0773399733,-0.0188663230,-0.0297879932,0.1179589348,0.3729281651,9.7851734065
1520504429785005682,-0.0728050410,-0.0168539964,-0.0189589968,0.1468205599,0.3189645982,9.8291065757
1520504429790022682,-0.0675164317,-0.0148406459,-0.0084019464,0.2225823258,0.3333483827,9.8539222921
1520504429795037682,-0.0604683778,-0.0122423804,0.0016151913,0.2069489456,0.3105659323,9.9400953279
1520504429800053682,-0.0599540032,-0.0087688790,0.0102984035,0.1985309716,0.3513373623,9.9947582716
1520504429805070682,-0.0606950212,-0.0038360334,0.0179128812,0.2009361070,0.4088959153,10.0318673397
1520504429810085682,-0.0589201458,0.0037224427,0.0247310618,0.1720744819,0.4148938652,10.0530610056
1520504429815101682,-0.0604081055,0.0150712799,0.0302314803,0.1528333985,0.4328824701,10.0729871936
1520504429820116682,-0.0606455927,0.0240990028,0.0321946840,0.1275794765,0.4940405986,10.1068755382
1520504429825134682,-0.0636536553,0.0296341273,0.0322425233,0.1576436693,0.4916399762,10.1914217591
1520504429830149682,-0.0656533589,0.0360372434,0.0347300780,0.1372000182,0.5000355514,10.2334497420
1520504429835165682,-0.0691681083,0.0395368499,0.0331400138,0.1504282631,0.5551949806,10.2913743945
1520504429840181682,-0.0741819825,0.0497391667,0.0310627891,0.1119460962,0.5659902416,10.3021977278
1520504429845196682,-0.0779427459,0.0590751065,0.0262711025,0.0866921743,0.5671913489,10.3477659789
1520504429850212682,-0.0827115195,0.0666638022,0.0209268526,0.0854896066,0.5959708127,10.3744789308
1520504429855230682,-0.0869763703,0.0771752812,0.0123573493,0.0458048720,0.6247532736,10.4015664444
1520504429860244682,-0.0927506411,0.0868134728,0.0032428852,0.0145381115,0.6475393768,10.4367128771
1520504429865261682,-0.0962678406,0.0935408905,-0.0067096478,0.0001072989,0.6763198709,10.4565817208
1520504429870277682,-0.0997865769,0.1002734072,-0.0185560021,0.0145381115,0.6919075725,10.4413181873
1520504429875292682,-0.1040578533,0.1052449381,-0.0258150146,0.0121329761,0.7122931470,10.4297002791
1520504429880308682,-0.1073268786,0.1093485366,-0.0352469303,0.0385894657,0.7458670183,10.4665986329
1520504429885325682,-0.1058206106,0.1137446619,-0.0444149449,0.0698562263,0.7962284810,10.4778666288
1520504429890340682,-0.1055731694,0.1160991464,-0.0530550956,0.0939075805,0.7842352035,10.5427242825
1520504429895355682,-0.1060722387,0.1219412087,-0.0584206183,0.1287820442,0.8058170150,10.5574716591
1520504429900372682,-0.1078291664,0.1266165121,-0.0635221539,0.1372000182,0.8405914317,10.5945444194
1520504429905387682,-0.1073206606,0.1356707539,-0.0713000027,0.1287820442,0.8837611425,10.6340971531
1520504429910403682,-0.1113367295,0.1409221128,-0.0742285245,0.1396051536,0.8825611592,10.6421279846
1520504429915420682,-0.1143486225,0.1426648679,-0.0725863099,0.1576436693,0.8885554564,10.6744865927
1520504429920436682,-0.1188673400,0.1452819143,-0.0712051716,0.1828975913,0.9185320001,10.6486443861
1520504429925451682,-0.1289189913,0.1432280864,-0.0674144218,0.1143512317,0.9341261642,10.6109456224
1520504429930468682,-0.1351948758,0.1432037720,-0.0592863768,0.0890973097,0.9053487609,10.5786794620
1520504429935484682,-0.1427318687,0.1417307840,-0.0544136644,0.0566279814,0.8609830941,10.4767700961
1520504429940499682,-0.1522808793,0.1393843116,-0.0500849793,-0.0095132428,0.8274123135,10.4332851455
1520504429945514682,-0.1605710199,0.1387866386,-0.0457452892,-0.0840724410,0.8058335928,10.3375739589
1520504429950532682,-0.1693630995,0.1381865834,-0.0405930281,-0.1381879881,0.7662661736,10.2625999176
1520504429955548682,-0.1779058993,0.1378860239,-0.0384150154,-0.1862906966,0.7338931285,10.1759388954
1520504429960562682,-0.1816777575,0.1361362399,-0.0384213531,-0.2476216499,0.7338979052,10.1044829281
1520504429965580682,-0.1849418275,0.1378818103,-0.0378608554,-0.2788884105,0.7255063574,10.0141482165
1520504429970595682,-0.1856921172,0.1402111343,-0.0373005787,-0.3053449002,0.7339024009,9.9981275271
1520504429975611682,-0.1841791728,0.1454632024,-0.0396982766,-0.3137628741,0.7602841458,9.9668058502
1520504429980627682,-0.1804043625,0.1510082696,-0.0423684978,-0.2608498948,0.7698731481,9.9035256995
1520504429985642682,-0.1721027899,0.1574219782,-0.0423349918,-0.3065474679,0.8034526391,9.8644248557
1520504429990659682,-0.1600363885,0.1641453021,-0.0485288191,-0.2692678688,0.8166402803,9.8152390901
1520504429995673682,-0.1464625430,0.1717484693,-0.0566125988,-0.2873063845,0.8454210553,9.8479266326
1520504430000691682,-0.1286160920,0.1787661707,-0.0630854836,-0.2824961136,0.8718017700,9.7641797222
1520504430005707682,-0.1082603850,0.1857972399,-0.0741623159,-0.2295831342,0.8885856149,9.7404054499
1520504430010721682,-0.0889133546,0.1881562933,-0.0817557540,-0.1935061029,0.8849853838,9.7842192764
1520504430015739682,-0.0685676408,0.1855614751,-0.0891183055,-0.1778727226,0.8765901833,9.7329409621
1520504430020754682,-0.0474725624,0.1794696095,-0.0962383884,-0.1634419100,0.8286234424,9.6840372289
1520504430025770682,-0.0296441101,0.1716194156,-0.1001191916,-0.1562265037,0.8645970932,9.6792833426
1520504430030786682,-0.0082989287,0.1617265379,-0.1023988151,-0.1454033943,0.8562022673,9.6396732880
1520504430035802682,0.0105237222,0.1465957668,-0.1076897918,-0.1069212275,0.8502035680,9.6555745883
1520504430040817682,0.0288457042,0.1302876058,-0.1086599931,-0.1454033943,0.8358168801,9.6222610075
1520504430045833682,0.0433962671,0.1122282040,-0.1090954402,-0.1081237952,0.8274199937,9.5626369944
1520504430050850682,0.0587093867,0.0979454415,-0.1051746531,-0.0756544670,0.7722570054,9.5798069068
1520504430055866682,0.0707529399,0.0824995031,-0.1026094204,-0.0720467638,0.7842481286,9.5751115224
1520504430060880682,0.0810385892,0.0679270291,-0.1000342513,-0.0504005450,0.7890430044,9.5493289871
1520504430065898682,0.0890641329,0.0545192071,-0.0974459894,-0.0768570347,0.7806510820,9.4914874860
1520504430070913682,0.0953329567,0.0413955245,-0.0924173243,-0.0816673055,0.7590669290,9.5194468092
1520504430075929682,0.1000960614,0.0320694482,-0.0911446013,-0.0973006858,0.8118303252,9.4881696372
1520504430080945682,0.1023452133,0.0233309837,-0.0920271321,-0.0876801441,0.8238209802,9.5078207506
1520504430085961682,0.1071107879,0.0180944888,-0.0945109284,-0.0997058212,0.8226227763,9.5067768266
1520504430090977682,0.1073499923,0.0108172584,-0.0972724312,-0.0804647378,0.8190238565,9.4996201900
1520504430095991682,0.1075968963,0.0093684469,-0.1002600182,-0.1357828526,0.8933748711,9.5593554652
1520504430101008682,0.1073368511,0.0061776873,-0.1056949234,-0.0431851387,0.9329392933,9.5549291558
1520504430106024682,0.1050622360,0.0000730232,-0.1114188715,-0.0395774356,0.9269433102,9.5618727510
1520504430111039682,0.1012835210,-0.0042882951,-0.1155034053,0.0013098666,0.9689100406,9.5695688599
1520504430116057682,0.0977509574,-0.0124375138,-0.1196173060,0.0409946012,1.0492493581,9.5795635429
1520504430121073682,0.0967353887,-0.0165012655,-0.1255985721,0.0433997366,1.0672362772,9.5795225927
1520504430126089682,0.0901805979,-0.0287274069,-0.1310907248,0.0698562263,1.1008101485,9.5966644993
1520504430131104682,0.0833669850,-0.0464899527,-0.1366246493,0.0927050128,1.1571679689,9.6486836222
1520504430136120682,0.0790748480,-0.0593038045,-0.1399610816,0.1083383931,1.1631624534,9.6241205868
1520504430141136682,0.0732712682,-0.0741550249,-0.1443924586,0.1131486640,1.1787509043,9.5752485190
1520504430146152682,0.0639564949,-0.0858111352,-0.1455462968,0.0842870388,1.1895454159,9.5418167417
1520504430151167682,0.0548954864,-0.0948410440,-0.1480333235,0.0830844711,1.2051343351,9.5499482530
1520504430156183682,0.0458318355,-0.1067891688,-0.1489193057,0.0373868980,1.1979430516,9.4922928635
1520504430161199682,0.0400397699,-0.1178735149,-0.1454759516,0.0229560855,1.1727622267,9.4994307440
1520504430166216682,0.0329978984,-0.1237119749,-0.1425313402,-0.0479954096,1.1679711909,9.5036124515
1520504430171232682,0.0236921851,-0.1298368781,-0.1417491186,-0.0720467638,1.1607782216,9.4794485457
1520504430176247682,0.0166494355,-0.1356724245,-0.1398866907,-0.1526188006,1.1140180203,9.4640083733
1520504430181263682,0.0093531445,-0.1426714221,-0.1388443262,-0.1345802849,1.0936312282,9.4080697664
1520504430186279682,0.0018139091,-0.1453077629,-0.1347921439,-0.1730624517,1.1224135954,9.3735519455
1520504430191294682,-0.0037089139,-0.1456217096,-0.1272088140,-0.1971138060,1.0756489921,9.3529130597
1520504430196311682,-0.0099837399,-0.1438933461,-0.1206907059,-0.2187600248,1.0564644312,9.2636573756
1520504430201327682,-0.0150022441,-0.1409931249,-0.1163304062,-0.2692678688,1.0300872756,9.2397696904
1520504430206343682,-0.0202685267,-0.1351776999,-0.1124885008,-0.3281936867,1.0181004607,9.1857341657
1520504430211356682,-0.0260352939,-0.1273205949,-0.1094417380,-0.3414219315,0.9941186825,9.1591569972
1520504430216375682,-0.0272788585,-0.1197538306,-0.1061350534,-0.3462322024,0.9701362487,9.0964714307
1520504430221390682,-0.0295295512,-0.1124737457,-0.1047225463,-0.3209782804,0.9257660862,9.1032417538
1520504430226406682,-0.0312814726,-0.1075223548,-0.1041403950,-0.3450296347,0.9317636615,9.1023078642
1520504430231422682,-0.0342892726,-0.1022808001,-0.1032831411,-0.3558527441,0.9485524704,9.1012346950
1520504430236439682,-0.0360418957,-0.0970343825,-0.1040514962,-0.3390167961,0.9125769464,9.0883223209
1520504430241454682,-0.0388052576,-0.0958677421,-0.1048491075,-0.3859169369,0.9209745821,9.0341498669
1520504430246469682,-0.0413143725,-0.0923691986,-0.1058999469,-0.4388299163,0.8874027713,9.0405083507
1520504430251486682,-0.0375442196,-0.0879794715,-0.1123667029,-0.4340196454,0.8766101329,9.0555799259
1520504430256502682,-0.0380544621,-0.0897104932,-0.1188722095,-0.4676915414,0.9017947042,9.0616938311
1520504430261517682,-0.0352974669,-0.0908560091,-0.1259204291,-0.4953505988,0.8910045946,9.1107836176
1520504430266534682,-0.0292741985,-0.0908274227,-0.1356712827,-0.5085788436,0.9041961695,9.0923052072
1520504430271550682,-0.0257696854,-0.0963419542,-0.1432953405,-0.5169968176,0.9125908081,9.1132975484
1520504430276566682,-0.0194968392,-0.0995272403,-0.1498245641,-0.5013634374,0.9065938884,9.1329076766
1520504430281581682,-0.0092018083,-0.1033010044,-0.1536602424,-0.5374404688,0.8886095919,9.1820864144
1520504430286598682,-0.0016672382,-0.1047469607,-0.1566613643,-0.5735175001,0.9030020867,9.2196121406
1520504430291614682,0.0076276116,-0.1053180741,-0.1596590841,-0.5831380418,0.8754226063,9.2325162593
1520504430296630682,0.0189419160,-0.0988937144,-0.1631482755,-0.6336458858,0.8730282591,9.2783338246
1520504430301646682,0.0279983534,-0.0916048284,-0.1633800463,-0.6132022347,0.8394507351,9.2770054362
1520504430306662682,0.0342894882,-0.0863625445,-0.1614578775,-0.6252279118,0.8118714419,9.2736629497
1520504430311676682,0.0471190108,-0.0782060409,-0.1587139751,-0.5590866876,0.8118662906,9.2927756188
1520504430316693682,0.0566778184,-0.0738431865,-0.1543696299,-0.5121865468,0.8286506038,9.2934648948
1520504430321709682,0.0639686914,-0.0732655750,-0.1514027139,-0.5626943907,0.8106674312,9.3764862680
1520504430326725682,0.0717701596,-0.0703727158,-0.1424669369,-0.5049711405,0.8262517610,9.4072871106
1520504430331740682,0.0750414744,-0.0721423245,-0.1340994200,-0.5097814114,0.8334469782,9.3678140204
1520504430336757682,0.0773080329,-0.0739137837,-0.1251889445,-0.4628812706,0.8322441850,9.4080337309
1520504430341772682,0.0815900356,-0.0742377308,-0.1124834448,-0.4785146508,0.8802110196,9.4127876989
1520504430346789682,0.0848593745,-0.0760007835,-0.1065508410,-0.4484504580,0.8886026610,9.4299190464
1520504430351803682,0.0871282657,-0.0757310942,-0.0981658956,-0.4821223540,0.8910035643,9.4488387526
1520504430356820682,0.0863734361,-0.0798260700,-0.0925141548,-0.5061737082,0.8982002801,9.4816058684
1520504430361835682,0.0853697697,-0.0827585199,-0.0857708714,-0.4484504580,0.8862043802,9.5170821817
1520504430366852682,0.0813441899,-0.0874273467,-0.0839051519,-0.3907272078,0.8634162164,9.5339747157
1520504430371868682,0.0770687578,-0.0929791666,-0.0787990842,-0.3233834158,0.8298350396,9.5414869818
1520504430376884682,0.0720376650,-0.1014524115,-0.0710083882,-0.2464190822,0.8358247475,9.5616506026
1520504430381900682,0.0697664176,-0.1125441204,-0.0643250176,-0.2343934051,0.8562091981,9.5812701205
1520504430386915682,0.0624702952,-0.1221779621,-0.0587033806,-0.2512293531,0.8813924582,9.5802472912
1520504430391931682,0.0566842161,-0.1277209032,-0.0571116092,-0.2043292123,0.8849862268,9.5995437332
1520504430396947682,0.0509029669,-0.1332798697,-0.0495678281,-0.1947086706,0.8777906350,9.6273485637
1520504430401963682,0.0453734165,-0.1370838748,-0.0444460883,-0.2115446185,0.8586056994,9.5915046814
1520504430406980682,0.0416090266,-0.1373949469,-0.0376776631,-0.2055317800,0.8634017928,9.5879550468
1520504430411994682,0.0348333202,-0.1339162880,-0.0319569208,-0.2307857020,0.8682003214,9.5916826075
1520504430417011682,0.0308219008,-0.1304365460,-0.0262413124,-0.2416088114,0.8538114792,9.6010991368
1520504430422027682,0.0227944086,-0.1231689236,-0.0210304281,-0.2560396239,0.8430203393,9.6605194631
1520504430427043682,0.0160260921,-0.1147389129,-0.0144602555,-0.2259754311,0.7974506617,9.7369727726
1520504430432058682,0.0095112738,-0.1048526096,-0.0076088884,-0.1730624517,0.8130353662,9.7329561169
1520504430437075682,0.0022481456,-0.0911800597,-0.0001861293,-0.1670496132,0.8382168468,9.7177651640
1520504430442090682,-0.0052647015,-0.0778055486,0.0096697866,-0.1177443369,0.8573992535,9.7811844648
1520504430447106682,-0.0150380502,-0.0635577701,0.0195365722,-0.1141366338,0.8669920959,9.8415714805
1520504430452122682,-0.0243017641,-0.0449426688,0.0307885002,-0.1129340661,0.8550005980,9.8857329391
1520504430457139682,-0.0320629148,-0.0280658144,0.0385071927,-0.0936929827,0.8537999590,9.9273840099
1520504430462153682,-0.0428380716,-0.0114880819,0.0486641758,-0.0780596024,0.8490021798,9.9667494160
1520504430467170682,-0.0523571341,0.0033352798,0.0612403998,-0.0311594616,0.8477993866,9.9779155276
1520504430472187682,-0.0621302632,0.0175823299,0.0713777313,-0.0071081073,0.8621871985,10.0032345614
1520504430477202682,-0.0749228948,0.0286215119,0.0820373014,-0.0239440553,0.8657859310,10.0243135154
1520504430482218682,-0.0877072112,0.0457797690,0.0927435563,-0.0071081073,0.8981614112,10.0310909362
1520504430487234682,-0.0984837323,0.0611912350,0.1031621929,0.0241586532,0.8933624143,10.0214941304
1520504430492249682,-0.1082542269,0.0754295439,0.1165460752,0.0494125752,0.8885638858,10.0514687444
1520504430497266682,-0.1192817842,0.0905473416,0.1277745932,0.0446023043,0.9221401923,10.0596178308
1520504430502281682,-0.1305657446,0.1015842006,0.1395135465,0.0602356846,0.8933596045,10.0397372820
1520504430507297682,-0.1395858594,0.1143709813,0.1509910920,0.0746664971,0.9089473061,10.0686352188
1520504430512313682,-0.1493644889,0.1242458067,0.1616361690,0.0758690649,0.9233368976,10.0686094816
1520504430517329682,-0.1561304806,0.1317900088,0.1725284066,0.0951101483,0.9437207862,10.0079708363
1520504430522345682,-0.1641528292,0.1413821516,0.1801919886,0.0987178514,0.9509153477,10.0056044172
1520504430527361682,-0.1691579610,0.1533116511,0.1859739334,0.1143512317,0.9880874833,10.0635231997
1520504430532377682,-0.1759203419,0.1646489511,0.1950012498,0.1444154245,1.0132670907,9.9783695085
1520504430537393682,-0.1806696429,0.1800758918,0.2005388590,0.1865052944,1.0120646722,10.0093388876
1520504430542408682,-0.1834096509,0.1955072622,0.2047200049,0.2045438101,1.0084658460,10.0045182440
1520504430547424682,-0.1858998067,0.2118216259,0.2056608026,0.1961258361,1.0012716591,9.9476621417
1520504430552440682,-0.1901474665,0.2307643170,0.2041899621,0.2117592164,0.9557031054,9.9638244262
1520504430557457682,-0.1956450655,0.2543679399,0.2030275704,0.1973284039,0.8729635401,10.0012341778
1520504430562471682,-0.1971328330,0.2718628041,0.1985644757,0.2009361070,0.7794303061,9.9269130580
1520504430567489682,-0.1986233291,0.2870251353,0.1946246880,0.1744796173,0.6990899583,9.9167896194
1520504430572504682,-0.2026269036,0.3013086861,0.1920356278,0.1516308308,0.6775072102,9.9088980559
1520504430577520682,-0.2058889820,0.3089016147,0.1853358480,0.1384025859,0.6067589555,9.9114200904
1520504430582535682,-0.2109150330,0.3138757639,0.1769960522,0.1263769088,0.5288157645,9.8686138218
1520504430587552682,-0.2106718180,0.3121464944,0.1699480536,0.1468205599,0.5252167510,9.8684183438
1520504430592567682,-0.2096739578,0.3112931307,0.1623642324,0.1720744819,0.5515958735,9.9192811462
1520504430597584682,-0.2091789578,0.3107331399,0.1539719300,0.2093540810,0.5527921105,9.9828350375
1520504430602600682,-0.2046650741,0.3066686405,0.1490625797,0.2358105707,0.5611840329,9.9930286365
1520504430607616682,-0.1948763770,0.3014435843,0.1430523522,0.2550516541,0.5815679215,10.0218750757
1520504430612631682,-0.1913770153,0.2906775753,0.1378231919,0.2995466595,0.6031489837,10.1248517524
1520504430617648682,-0.1795824125,0.2831266011,0.1301681706,0.3608776128,0.6343218581,10.2195201960
1520504430622664682,-0.1682882120,0.2755681456,0.1252195417,0.4005623473,0.6846826651,10.3167049090
1520504430627679682,-0.1524776697,0.2636443366,0.1188764360,0.4342342433,0.7050654298,10.4035180852
1520504430632695682,-0.1384281950,0.2517263943,0.1101016844,0.4378419465,0.7194548339,10.4848190148
1520504430637712682,-0.1165793064,0.2462205069,0.1019024640,0.4715138424,0.7925997773,10.4983656710
1520504430642726682,-0.0954866861,0.2404294954,0.0912675076,0.5244268218,0.8045870605,10.5478111451
1520504430647744682,-0.0738896609,0.2372669690,0.0784872583,0.6098091294,0.8201692361,10.5713699078
1520504430652758682,-0.0460041353,0.2393554677,0.0643826270,0.6362656191,0.8801241968,10.5780267933
1520504430657775682,-0.0176152162,0.2434904109,0.0478577108,0.6591144056,0.9304863150,10.5777552850
1520504430662789682,0.0125391222,0.2493612386,0.0362126922,0.7324710361,0.9652556740,10.5909530931
1520504430667806682,0.0454647418,0.2598931165,0.0254097467,0.8503226720,1.0443897633,10.5688102300
1520504430672823682,0.0781426222,0.2715838782,0.0170510733,0.8695637554,1.1007478646,10.6452694912
1520504430677838682,0.1075598121,0.2844236010,0.0143888235,0.8719688908,1.1523107155,10.6428715116
1520504430682854682,0.1362266653,0.2984220107,0.0141717793,0.9068433545,1.1631002632,10.6390351090
1520504430687870682,0.1648958393,0.3100711333,0.0207005977,0.9465280890,1.1726902958,10.6467744951
1520504430692885682,0.1923060061,0.3179230237,0.0304494004,0.9320972765,1.1499077517,10.6364778776
1520504430697902682,0.2141853523,0.3231459167,0.0418117387,0.9320972765,1.1199292411,10.6004806485
1520504430702918682,0.2355547501,0.3216609413,0.0552882466,0.8948176774,1.0659708255,10.5683560948
1520504430707934682,0.2541522434,0.3122973025,0.0724975077,0.9260844379,1.0623709691,10.5052994979
1520504430712948682,0.2719894185,0.2988568987,0.0885948621,0.9200715993,1.0120075396,10.4321920663
1520504430717965682,0.2868037079,0.2813417576,0.1025023269,0.8888048388,0.9616460770,10.3465468574
1520504430722982682,0.2988496172,0.2603267338,0.1171998863,0.8924125419,0.9100827578,10.2361583481
1520504430727997682,0.3103873031,0.2372812909,0.1283657210,0.9020330837,0.8801034979,10.1489331446
1520504430733013682,0.3219242481,0.2162871947,0.1352183828,0.8876022711,0.8489269708,10.1002939620
1520504430738030682,0.3296930318,0.1967507296,0.1412775233,0.8851971357,0.8273426305,9.9864483127
1520504430743044682,0.3326832331,0.1783961427,0.1405907765,0.8779817294,0.7937672606,9.8982283440
1520504430748062682,0.3399543589,0.1670386435,0.1391378117,0.8635509168,0.7733829973,9.8344707660
1520504430753077682,0.3447114497,0.1583179176,0.1320280581,0.8563355106,0.7937689465,9.7357388815
1520504430758093682,0.3451921519,0.1475609252,0.1230168559,0.8755765940,0.6954379332,9.7112424634
1520504430763108682,0.3414071956,0.1408787287,0.1151268948,0.9284895733,0.6870398292,9.7014384746
1520504430768125682,0.3366138450,0.1365483392,0.0994107543,0.9296921410,0.6546629441,9.6468375759
1520504430773140682,0.3308142405,0.1304648780,0.0853064176,0.9369075473,0.6078959057,9.6142729190
1520504430778157682,0.3187308050,0.1246761675,0.0690516048,0.9020330837,0.5707252687,9.6239457668
1520504430783173682,0.3053859552,0.1180251944,0.0481931762,0.9068433545,0.5887120004,9.5948278077
1520504430788189682,0.2945557167,0.1107844241,0.0303016391,0.9056407868,0.5983052174,9.6169108931
1520504430793203682,0.2799491312,0.0980036856,0.0131865018,0.9441229536,0.5551331651,9.5979841243
1520504430798220682,0.2615700680,0.0817190285,-0.0017839444,1.0427335061,0.5299435361,9.6272646086
1520504430803236682,0.2452049943,0.0648378214,-0.0113516527,1.0860259437,0.5395332877,9.6245095839
1520504430808253682,0.2230651010,0.0494010745,-0.0171098684,1.1437491940,0.5467236346,9.6367243087
1520504430813266682,0.2031880811,0.0333758886,-0.0204418177,1.1509646002,0.5263376854,9.6819975713
1520504430818285682,0.1818019901,0.0155981628,-0.0224315757,1.2074852827,0.5167401600,9.6558896214
1520504430823300682,0.1614302879,0.0039369921,-0.0232943322,1.2014724442,0.4843638369,9.6768983100
1520504430828315682,0.1385481417,-0.0086117001,-0.0195598105,1.2519802881,0.4459874096,9.6183369188
1520504430833332682,0.1176746258,-0.0226172557,-0.0155695922,1.2952727258,0.4136072464,9.5772720705
1520504430838347682,0.0970571133,-0.0342967356,-0.0096682346,1.3397677312,0.4267943256,9.5582318174
1520504430843363682,0.0761937983,-0.0430675677,-0.0018503581,1.3036906998,0.3740349568,9.5086622300
1520504430848380682,0.0550808977,-0.0515514844,0.0075934835,1.3181215123,0.3764321137,9.4910872713
1520504430853396682,0.0367380081,-0.0541993432,0.0143711940,1.3253369186,0.3860246752,9.4143061853
1520504430858411682,0.0181429846,-0.0571372281,0.0206060562,1.3205266478,0.3428559946,9.3295585931
1520504430863425682,-0.0004493534,-0.0574497385,0.0257787427,1.3313497572,0.3212706240,9.3283121517
1520504430868443682,-0.0152686924,-0.0563089485,0.0328493650,1.3698319240,0.2996830993,9.2338249777
1520504430873458682,-0.0303344924,-0.0522573253,0.0410248685,1.3890730074,0.2685039497,9.2394788194
1520504430878475682,-0.0453962858,-0.0441212198,0.0473376739,1.4275551742,0.2517129866,9.1635812714
1520504430883491682,-0.0597033436,-0.0342314128,0.0517685963,1.4455936899,0.2696986881,9.1354967005
1520504430888506682,-0.0712461615,-0.0255111598,0.0580793138,1.3950858460,0.2481180942,9.1383336489
1520504430893521682,-0.0822854956,-0.0138666666,0.0606236861,1.4443911222,0.2768936243,9.0843670556
1520504430898539682,-0.0880570534,-0.0077498560,0.0606811055,1.4756578827,0.2888825934,9.1072939098
1520504430903554682,-0.0953366670,-0.0013400664,0.0599319106,1.4948989661,0.2900802352,9.1408076342
1520504430908570682,-0.1013586024,0.0044808907,0.0616108491,1.5550273518,0.2852789905,9.1379027708
1520504430913585682,-0.1033626615,0.0076787769,0.0640739499,1.6031300603,0.2948683675,9.1327766380
1520504430918602682,-0.1071238327,0.0123328967,0.0665514332,1.6392070917,0.2996621194,9.2300409012
1520504430923618682,-0.1056111628,0.0134880990,0.0706157136,1.6295865500,0.3164508346,9.2359288906
1520504430928634682,-0.1081212931,0.0149411234,0.0717136798,1.6103454666,0.3272445970,9.2105384805
1520504430933649682,-0.1078620358,0.0190125925,0.0747203412,1.6343968208,0.4051868513,9.2323091074
1520504430938666682,-0.1058457959,0.0225063523,0.0760960139,1.6283839823,0.4051873196,9.2776912469
1520504430943681682,-0.1040817291,0.0274664059,0.0739661721,1.6031300603,0.4399643588,9.3487939235
1520504430948698682,-0.1028235178,0.0292173906,0.0731655393,1.6319916854,0.4855294470,9.3414957035
1520504430953714682,-0.0987995257,0.0312572008,0.0737147251,1.6343968208,0.5358931575,9.3402610372
1520504430958729682,-0.0945328088,0.0289350826,0.0709835472,1.6187634406,0.5790634303,9.3705868495
1520504430963744682,-0.0890092879,0.0274905240,0.0671745213,1.6283839823,0.6186343150,9.3704546209
1520504430968761682,-0.0864989772,0.0277930911,0.0633844346,1.6199660083,0.6654014471,9.4402195893
1520504430973776682,-0.0814736083,0.0304313612,0.0582547359,1.6067377634,0.6857878646,9.4833277925
1520504430978792682,-0.0764433153,0.0353948800,0.0553071890,1.6259788468,0.7049726128,9.5272832724
1520504430983809682,-0.0734253889,0.0403641671,0.0499284629,1.6404096594,0.6905818038,9.5608590185
1520504430988825682,-0.0706583221,0.0453318988,0.0450912952,1.6235737114,0.6953796767,9.6249361294
1520504430993840682,-0.0671440864,0.0468098674,0.0377911374,1.6283839823,0.7121672680,9.6922772877
1520504430998857682,-0.0643841901,0.0468255191,0.0323750855,1.6115480343,0.6929823325,9.7029191635
1520504431003873682,-0.0618814419,0.0433481001,0.0255800938,1.6295865500,0.6929809276,9.7225000349
1520504431008889682,-0.0568635492,0.0416207012,0.0185232276,1.6416122271,0.7001748335,9.7572402869
1520504431013904682,-0.0526025442,0.0378540438,0.0111816540,1.6416122271,0.6606031995,9.7665760268
1520504431018920682,-0.0483431662,0.0332146896,0.0032923193,1.6800943939,0.6486087982,9.7708617342
1520504431023936682,-0.0450920650,0.0256581826,-0.0035351957,1.6728789877,0.6294231134,9.8000042728
1520504431028952682,-0.0400838910,0.0184017620,-0.0133397595,1.6331942531,0.6126382382,9.8073797741
1520504431033968682,-0.0335726285,0.0088199550,-0.0250587297,1.6355993886,0.5982483658,9.8248025554
1520504431038984682,-0.0275666491,-0.0033874234,-0.0357145906,1.6608533105,0.6114369436,9.8640567809
1520504431043999682,-0.0215635277,-0.0170488107,-0.0474637505,1.6680687168,0.6330209093,9.8360740476
1520504431049016682,-0.0132996421,-0.0318770353,-0.0584143655,1.6620558782,0.6618007478,9.8535366680
1520504431054031682,-0.0062974373,-0.0487374312,-0.0723542134,1.6800943939,0.6677950450,9.8196530708
1520504431059047682,0.0002029186,-0.0647224135,-0.0868275504,1.6536379042,0.6773902289,9.8419819625
1520504431064063682,0.0079627600,-0.0786679403,-0.1010171135,1.5983197895,0.6654031330,9.8320727929
1520504431069079682,0.0179847730,-0.0929068792,-0.1141309166,1.6007249249,0.6905848946,9.8238898190
1520504431074096682,0.0229804997,-0.1080248545,-0.1261598709,1.5874966800,0.6654039759,9.8345024263
1520504431079112682,0.0287299073,-0.1216783276,-0.1408845690,1.5874966800,0.6582091334,9.8008072677
1520504431084127682,0.0357445554,-0.1321406471,-0.1501762287,1.5718632998,0.6438206659,9.8288649204
1520504431089144682,0.0412471883,-0.1452238329,-0.1602967336,1.5562299195,0.5910597048,9.8767164392
1520504431094157682,0.0465035797,-0.1553969140,-0.1690418115,1.5730658675,0.5478893384,9.8277846185
1520504431099175682,0.0497455307,-0.1693624237,-0.1764593262,1.5634453258,0.5358986834,9.7744313304
1520504431104191682,0.0527363985,-0.1847922389,-0.1811820306,1.5886992477,0.5538838229,9.7846272798
1520504431109206682,0.0569829253,-0.2005114894,-0.1864503835,1.6115480343,0.5610768859,9.7797492918
1520504431114222682,0.0617341590,-0.2156521446,-0.1900919483,1.6355993886,0.5406896255,9.7272385915
1520504431119238682,0.0637216270,-0.2328445009,-0.1896857524,1.5814838415,0.5574818061,9.7231003725
1520504431124254682,0.0674787013,-0.2424608988,-0.1889544773,1.5923069509,0.5766672100,9.7125170220
1520504431129270682,0.0722413708,-0.2503220398,-0.1906466438,1.5538247841,0.5874624709,9.6884760367
1520504431134286682,0.0729891044,-0.2561552624,-0.1885281385,1.5405965392,0.5814677990,9.7176642379
1520504431139302682,0.0757495182,-0.2596537074,-0.1874777659,1.5297734298,0.5934600462,9.7340279053
1520504431144317682,0.0795191770,-0.2593601176,-0.1877530895,1.5249631590,0.5778715954,9.7271170633
1520504431149334682,0.0790180730,-0.2590725722,-0.1863972035,1.4768604504,0.5766762013,9.6962085481
1520504431154350682,0.0782705080,-0.2558741936,-0.1839364364,1.4961015338,0.6030557921,9.7029684054
1520504431159366682,0.0812934800,-0.2523851390,-0.1806688093,1.4648347733,0.5538934699,9.6719427931
1520504431164382682,0.0815584532,-0.2454056521,-0.1754755499,1.4732527473,0.5826721844,9.7334264231
1520504431169398682,0.0818253631,-0.2366764011,-0.1708100438,1.4780630182,0.5910657927,9.7508035768
1520504431174413682,0.0798370091,-0.2224080881,-0.1674508281,1.4263526065,0.6078577861,9.7199126367
1520504431179428682,0.0788500633,-0.2122245921,-0.1619602353,1.4107192262,0.6126555653,9.6910065262
1520504431184445682,0.0791265625,-0.1970877953,-0.1561636378,1.4431885545,0.6102547557,9.7464757382
1520504431189461682,0.0791484619,-0.1848671275,-0.1495771667,1.4383782836,0.6330387983,9.7430139091
1520504431194477682,0.0749022840,-0.1700271296,-0.1424216618,1.4203397679,0.6342393437,9.8012955133
1520504431199492682,0.0744317396,-0.1537425723,-0.1301216702,1.4275551742,0.6462301859,9.7733221347
1520504431204509682,0.0704370761,-0.1403666829,-0.1202722885,1.4335680128,0.6438314368,9.7476987811
1520504431209526682,0.0677031721,-0.1246628671,-0.1090547262,1.3698319240,0.6210527327,9.7506656545
1520504431214541682,0.0647155073,-0.1101217741,-0.0989277731,1.3842627365,0.6630215236,9.7876728734
1520504431219557682,0.0607210124,-0.0993807288,-0.0844991189,1.3890730074,0.5970684257,9.8097711020
1520504431224572682,0.0549726633,-0.0839745780,-0.0713843577,1.4107192262,0.6018633015,9.8049071578
1520504431229589682,0.0467080720,-0.0703148052,-0.0593604514,1.4251500388,0.6354381095,9.8035718117
1520504431234604682,0.0424613138,-0.0589852618,-0.0470912515,1.4179346325,0.6474300756,9.8303596596
1520504431239621682,0.0351940888,-0.0502749900,-0.0364597340,1.4419859868,0.6210471131,9.8324755718
1520504431244635682,0.0296902209,-0.0392365949,-0.0244609694,1.4504039608,0.5814748235,9.7812978906
1520504431249653682,0.0246840228,-0.0319867303,-0.0122214925,1.4552142316,0.5802753085,9.7475500651
1520504431254668682,0.0166640930,-0.0209391217,-0.0040057033,1.4612270702,0.5550928913,9.7231110729
1520504431259684682,0.0116527082,-0.0157209360,0.0052422072,1.4648347733,0.5586900316,9.6847216992
1520504431264699682,0.0056367867,-0.0105053294,0.0153036222,1.4684424765,0.5395035038,9.6370573913
1520504431269715682,-0.0008811993,-0.0029501023,0.0221372047,1.5081272110,0.5395004130,9.6343468366
1520504431274732682,-0.0056427751,0.0034439180,0.0276058982,1.5033169401,0.5119205579,9.6146641044
1520504431279749682,-0.0101588581,0.0060522232,0.0322335872,1.5009118047,0.5095224644,9.5833119664
1520504431284764682,-0.0169336394,0.0106986056,0.0371515842,1.5562299195,0.5083190156,9.5746396955
1520504431289780682,-0.0174306504,0.0144849507,0.0377225096,1.5321785652,0.5143165909,9.5737058059
1520504431294794682,-0.0219502030,0.0168120694,0.0385603330,1.5141400495,0.5347033830,9.5622400635
1520504431299812682,-0.0262134897,0.0211716940,0.0421187102,1.5297734298,0.5347021655,9.5923036406
1520504431304827682,-0.0307390209,0.0208843647,0.0399605210,1.5201528881,0.5119192467,9.6435538324
1520504431309843682,-0.0350112303,0.0217612151,0.0383518491,1.5670530289,0.5167121557,9.6756326886
1520504431314858682,-0.0405402005,0.0214676646,0.0383598940,1.5826864092,0.5442911678,9.6138599985
1520504431319875682,-0.0412984056,0.0194327765,0.0364519113,1.5694581643,0.5382964960,9.5814545701
1520504431324891682,-0.0448200195,0.0173938917,0.0356312461,1.5742684352,0.5526858064,9.5860422936
1520504431329907682,-0.0470813561,0.0179772316,0.0350988010,1.5814838415,0.5706723508,9.5894409550
1520504431334922682,-0.0460795010,0.0168179147,0.0329236746,1.5550273518,0.5478907433,9.5722885244
1520504431339939682,-0.0470896164,0.0159557507,0.0283195920,1.5550273518,0.5466916028,9.5711275498
1520504431344954682,-0.0486031724,0.0118765050,0.0280207232,1.5766735706,0.5323002319,9.6034709216
1520504431349971682,-0.0476058924,0.0075126868,0.0255505970,1.6055351957,0.5251031415,9.6241156074
1520504431354986682,-0.0493740835,0.0037371105,0.0206551378,1.5959146540,0.5215064695,9.6021320208
1520504431360001682,-0.0451066608,0.0025834441,0.0168506687,1.6199660083,0.5310977197,9.5995642770
1520504431365018682,-0.0453612998,0.0014236350,0.0146778759,1.6368019563,0.5334946893,9.6389109620
1520504431370034682,-0.0410922110,-0.0006136545,0.0143838341,1.6704738522,0.4843273095,9.5874968293
1520504431375050682,-0.0345611230,-0.0017729906,0.0130100775,1.6849046648,0.4267674452,9.5502238904
1520504431380065682,-0.0297918593,-0.0067290275,0.0145866926,1.6764866908,0.4507509093,9.5049588248
1520504431385082682,-0.0240213561,-0.0131350373,0.0137154124,1.6800943939,0.4183738369,9.4666045313
1520504431390098682,-0.0164847238,-0.0151732322,0.0142269409,1.6548404720,0.3967912761,9.4691956735
1520504431395113682,-0.0074403849,-0.0166251536,0.0136579317,1.7101585868,0.4063800912,9.4605128785
1520504431400129682,-0.0001631001,-0.0236126133,0.0125088591,1.6632584460,0.3800026546,9.4900487000
1520504431405146682,0.0126470675,-0.0285633143,0.0132589014,1.6247762791,0.3776073709,9.5252899191
1520504431410162682,0.0224451696,-0.0305998947,0.0134956835,1.6728789877,0.3728070628,9.5294749701
1520504431415177682,0.0322485486,-0.0297270004,0.0153779718,1.6692712845,0.3824004671,9.5050957075
1520504431420194682,0.0405360860,-0.0338038631,0.0156019927,1.6752841231,0.4051836669,9.5282578438
1520504431425209682,0.0485777309,-0.0358498739,0.0190885926,1.6644610137,0.4027862290,9.5330141038
1520504431430225682,0.0558617431,-0.0393472751,0.0204011101,1.7330073733,0.3811963627,9.5672322824
1520504431435241682,0.0656640675,-0.0387635800,0.0214695376,1.7149688576,0.4051805761,9.5987623582
1520504431440257682,0.0739546354,-0.0425577995,0.0249423323,1.7366150764,0.4123737328,9.5997067951
1520504431445272682,0.0807378063,-0.0460612251,0.0284201504,1.7426279150,0.4507457580,9.6089080026
1520504431450288682,0.0867718323,-0.0460683318,0.0319260457,1.7330073733,0.4435516648,9.6427108337
1520504431455305682,0.0923010141,-0.0487024667,0.0370361420,1.6993354773,0.4567448319,9.7011329103
1520504431460319682,0.0973269005,-0.0495782933,0.0383728678,1.6969303419,0.5107063383,9.7045901320
1520504431465337682,0.0970830309,-0.0463833600,0.0421854310,1.6608533105,0.5322936757,9.7142173872
1520504431470352682,0.0970888762,-0.0443538663,0.0459886351,1.6331942531,0.5143087235,9.7668006216
1520504431475368682,0.0978497236,-0.0394007624,0.0462955733,1.6512327688,0.5322944250,9.8270389912
1520504431480384682,0.0953493630,-0.0297846007,0.0458325105,1.6163583051,0.5179074560,9.8239060381
1520504431485400682,0.0915878860,-0.0245440698,0.0469617105,1.6319916854,0.5251010810,9.8435033035
1520504431490417682,0.0883280384,-0.0201782240,0.0483538537,1.5706607321,0.5478895257,9.8766180747
1520504431495431682,0.0823048288,-0.0146457377,0.0489483854,1.5502170809,0.5538868200,9.8837840777
1520504431500447682,0.0760259688,-0.0108551013,0.0470951323,1.5285708621,0.5598842080,9.8956103615
1520504431505464682,0.0685002471,-0.0009502526,0.0469141731,1.5177477527,0.5466945063,9.9317550324
1520504431510478682,0.0587078648,0.0054578241,0.0464401913,1.5117349141,0.5215130257,9.9016223710
1520504431515495682,0.0514306702,0.0133230796,0.0462432037,1.5105323464,0.5215131194,9.8900126365
1520504431520511682,0.0411375408,0.0220664062,0.0441646648,1.4780630182,0.5251130695,9.8845144452
1520504431525527682,0.0318467016,0.0281854806,0.0428758888,1.4492013930,0.5095264918,9.8673784087
1520504431530543682,0.0205402341,0.0296379727,0.0429080068,1.4203397679,0.5335115481,9.8629873674
1520504431535559682,0.0097348784,0.0337298764,0.0367366435,1.3445780020,0.5419114316,9.8555815929
1520504431540575682,0.0019387733,0.0331608091,0.0305241102,1.3445780020,0.5311191678,9.8381599576
1520504431545590682,-0.0108895536,0.0288054161,0.0229392817,1.2988804289,0.5467115524,9.8722917231
1520504431550607682,-0.0212011991,0.0261949441,0.0169863999,1.2591956944,0.5563077666,9.9249651131
1520504431555623682,-0.0307639585,0.0218452016,0.0077722286,1.2291315016,0.5635049506,9.8717921016
1520504431560638682,-0.0418341580,0.0180790942,-0.0019757879,1.1954596056,0.5814946795,9.8837237427
1520504431565655682,-0.0519022867,0.0116894630,-0.0112045873,1.2002698765,0.6450487473,9.9347492814
1520504431570671682,-0.0609663963,0.0088165076,-0.0277133158,1.1702056836,0.6930167057,9.9896159001
1520504431575687682,-0.0720388382,0.0038870474,-0.0382818624,1.1413440585,0.6918198131,10.0642752039
1520504431580702682,-0.0815997040,0.0015799103,-0.0485626556,1.0968490531,0.7613734231,10.0762619088
1520504431585718682,-0.0899060515,-0.0007201787,-0.0612806955,1.0860259437,0.7829587936,10.0763462062
1520504431590733682,-0.0987129307,-0.0021492247,-0.0729089492,1.0872285114,0.8321234573,10.1181237406
1520504431595749682,-0.1077708420,-0.0024084605,-0.0861511191,1.0944439177,0.8561057038,10.1796237531
1520504431600766682,-0.1178368577,-0.0067562147,-0.0961759946,1.0499489123,0.8836893990,10.1416791949
1520504431605781682,-0.1251350696,-0.0096510623,-0.1043010674,1.0776079697,0.8812889640,10.1042237107
1520504431610797682,-0.1304202054,-0.0099197477,-0.1134920497,1.0631771572,0.9040737559,10.0973690902
1520504431615814682,-0.1392186910,-0.0087423585,-0.1191482859,0.9982385007,0.8896891285,10.0666373086
1520504431620830682,-0.1467665355,-0.0125209277,-0.1237624645,0.9525409276,0.8932901089,10.0391871378
1520504431625846682,-0.1510482363,-0.0142468704,-0.1326958833,0.9669717402,0.8585139127,9.9925948298
1520504431630861682,-0.1528151493,-0.0162704973,-0.1389307335,0.9140587608,0.8477257699,9.9873096566
1520504431635877682,-0.1545772676,-0.0150903514,-0.1446000379,0.8539303751,0.7937691338,9.9623803627
1520504431640893682,-0.1545828856,-0.0141936164,-0.1529802914,0.8118405052,0.7781835864,9.8814551643
1520504431645908682,-0.1586097277,-0.0147604784,-0.1594703715,0.7697506352,0.7661954603,9.8830386786
1520504431650923682,-0.1596208507,-0.0147412046,-0.1667732438,0.7300659007,0.7506097256,9.8474136843
1520504431655941682,-0.1588740227,-0.0144247580,-0.1759709813,0.6903811662,0.7254308674,9.8315544919
1520504431660955682,-0.1583824570,-0.0184857337,-0.1827666854,0.6699375151,0.7182376171,9.8329226378
1520504431665973682,-0.1591487028,-0.0225428311,-0.1911833312,0.6458861608,0.7278326137,9.8261745205
1520504431670988682,-0.1568947483,-0.0251505656,-0.1963479115,0.6230373742,0.7206395507,9.8264039326
1520504431676004682,-0.1546446162,-0.0286237124,-0.2047657118,0.6001885877,0.7386284366,9.8173116370
1520504431681021682,-0.1496321807,-0.0350161775,-0.2107759638,0.5520858792,0.7542210085,9.8619261081
1520504431686037682,-0.1431132734,-0.0428671597,-0.2159884939,0.5184139832,0.7350373842,9.8762182866
1520504431691052682,-0.1378480885,-0.0486789424,-0.2211831289,0.4727164101,0.7458332071,9.8975711458
1520504431696067682,-0.1323382460,-0.0585663680,-0.2277620832,0.4642984361,0.7530287053,9.9266996640
1520504431701083682,-0.1255655778,-0.0652546274,-0.2318840041,0.4618933007,0.7434357692,9.9511374519
1520504431706100682,-0.1157817264,-0.0763175722,-0.2341510507,0.4667035716,0.7530285179,9.9557298528
1520504431711115682,-0.1029796074,-0.0862174396,-0.2350620762,0.5039831707,0.7854024059,9.9809025909
1520504431716132682,-0.0896802539,-0.0984409020,-0.2386972788,0.4979703321,0.7866020146,9.9856085226
1520504431721148682,-0.0741211947,-0.1135838794,-0.2399239996,0.5388576343,0.8189756216,10.0095840016
1520504431726164682,-0.0568031339,-0.1296039634,-0.2398079273,0.5460730406,0.8357630256,10.0583074466
1520504431731179682,-0.0412466308,-0.1482508395,-0.2383558663,0.5809475043,0.8321628882,10.0184586135
1520504431736196682,-0.0216599375,-0.1622441859,-0.2330880608,0.6482912962,0.8837206814,10.0212392806
1520504431741211682,-0.0025810285,-0.1782694082,-0.2308108884,0.6314553482,0.8885185544,10.0760192399
1520504431746226682,0.0172543292,-0.1922539150,-0.2287901005,0.6386707545,0.9005093966,10.0631537327
1520504431751244682,0.0365853289,-0.2076962697,-0.2265089487,0.6506964316,0.9041058813,10.0653574620
1520504431756259682,0.0574261916,-0.2208033154,-0.2255655419,0.6122142648,0.9137020018,10.0448040779
1520504431761274682,0.0795263672,-0.2306995399,-0.2264938362,0.5496807438,0.9137068721,10.0709799078
1520504431766291682,0.0991154913,-0.2388469850,-0.2279452165,0.5689218272,0.9328916204,10.0870439329
1520504431771307682,0.1154436229,-0.2437955792,-0.2274722541,0.5809475043,0.9352889646,10.1066809909
1520504431776322682,0.1322764182,-0.2478727366,-0.2259113724,0.6001885877,0.9832530830,10.1599055583
1520504431781339682,0.1455936292,-0.2487402152,-0.2264838698,0.5629089886,1.0480095693,10.1927453014
1520504431786354682,0.1591642482,-0.2490291969,-0.2254291124,0.5593012855,1.0863823438,10.2357423240
1520504431791371682,0.1707263701,-0.2472763607,-0.2254372431,0.5124011447,1.1403473156,10.2849562471
1520504431796386682,0.1782773001,-0.2391175540,-0.2243068148,0.4991728998,1.2110976309,10.3105831787
1520504431801402682,0.1828104055,-0.2306598031,-0.2264151136,0.4775266810,1.3094288315,10.3571837420
1520504431806418682,0.1873475569,-0.2198738897,-0.2274234440,0.4486650559,1.3897734877,10.3515755979
1520504431811433682,0.1906268498,-0.2102547351,-0.2281677873,0.4270188370,1.4329442288,10.3726627838
1520504431816450682,0.1921483721,-0.1991771617,-0.2297093857,0.4077777536,1.4785130634,10.3890756452
1520504431821465682,0.1911580861,-0.1901533763,-0.2263920525,0.3729032900,1.5180874136,10.4172679586
1520504431826482682,0.1894126295,-0.1814183572,-0.2241577257,0.2899261178,1.5444749654,10.4378063292
1520504431831497682,0.1861602580,-0.1726868424,-0.2208384150,0.3151800397,1.5780489304,10.4514735090
1520504431836513682,0.1771216311,-0.1697903818,-0.2156590100,0.3031543626,1.5876429904,10.4190411741
1520504431841529682,0.1698359801,-0.1715561128,-0.2102478957,0.2875209823,1.5792502250,10.4470929801
1520504431846545682,0.1590309106,-0.1753680128,-0.2029519875,0.2694824666,1.5984378767,10.4542227103
1520504431851561682,0.1499855445,-0.1803520461,-0.1929627797,0.2382157061,1.6440076479,10.3986996970
1520504431856577682,0.1371750906,-0.1838886464,-0.1799794509,0.2334054352,1.6703891119,10.3824507764
1520504431861592682,0.1225959086,-0.1950041188,-0.1662390175,0.2237848935,1.6679915803,10.3290881337
1520504431866610682,0.1080273235,-0.2005934833,-0.1486687029,0.1576436693,1.6452130636,10.2879169469
1520504431871626682,0.0929497230,-0.2087960358,-0.1346345593,0.1468205599,1.6691967150,10.2682424584
1520504431876642682,0.0788808344,-0.2155463709,-0.1186973459,0.1215666379,1.7075711754,10.2068572161
1520504431881657682,0.0610449725,-0.2199649213,-0.1035469847,0.1287820442,1.6847869454,10.1533505813
1520504431886673682,0.0437152719,-0.2217608140,-0.0883775491,0.1480231276,1.6907811489,10.1194552791
1520504431891688682,0.0271467205,-0.2206534926,-0.0691290944,0.1564411016,1.6643994040,10.0647783033
1520504431896705682,0.0095731933,-0.2195472934,-0.0496082270,0.1997335393,1.6416123642,10.0004612212
1520504431901720682,-0.0074908755,-0.2143658845,-0.0284338944,0.2069489456,1.6224255555,9.9736803894
1520504431906737682,-0.0250535392,-0.2065636686,-0.0066975288,0.1792898882,1.5996440416,9.9693232473
1520504431911752682,-0.0421054665,-0.1929342937,0.0153529110,0.1612513725,1.5600738125,9.9311866608
1520504431916768682,-0.0624241021,-0.1790140858,0.0371410954,0.1287820442,1.5229029882,9.8513510140
1520504431921785682,-0.0807263214,-0.1613080051,0.0600366296,0.1432128568,1.4833302303,9.8163848229
1520504431926801682,-0.0997817276,-0.1409702894,0.0794364752,0.1155537994,1.4377650484,9.7609155643
1520504431931816682,-0.1185829770,-0.1191784664,0.0999291530,0.0890973097,1.4329705472,9.6705305245
1520504431936831682,-0.1366294909,-0.0956329418,0.1185399479,0.0770716326,1.4005946924,9.5800319188
1520504431941848682,-0.1551755171,-0.0677073766,0.1336679259,0.0337791949,1.3562298685,9.4817143303
1520504431946863682,-0.1734698054,-0.0397831698,0.1493365290,0.0602356846,1.3382407016,9.4036107142
1520504431951879682,-0.1905083876,-0.0109777613,0.1625745546,0.0842870388,1.2914723519,9.3127749889
1520504431956895682,-0.2060386475,0.0187045769,0.1750048114,0.0710587940,1.2471051865,9.3234063056
1520504431961911682,-0.2205653782,0.0492709320,0.1839227740,0.0854896066,1.2267186754,9.2756378216
1520504431966927682,-0.2345941335,0.0754623456,0.1944297322,0.1107435285,1.2351106915,9.2381952235
1520504431971944682,-0.2458584252,0.1019469551,0.2046632337,0.1035281222,1.2207215684,9.1801722882
1520504431976959682,-0.2561234532,0.1269881476,0.2100139267,0.0915024451,1.2147268029,9.1547280185
1520504431981975682,-0.2651341001,0.1499879554,0.2161583622,0.0409946012,1.2099341749,9.1668457477
1520504431986991682,-0.2696257158,0.1727112626,0.2174223475,0.0325766272,1.2003417071,9.1576398862
1520504431992006682,-0.2743660782,0.1974748915,0.2184318151,0.0001072989,1.1703657254,9.0940672387
1520504431997023682,-0.2768433437,0.2231128316,0.2197142975,0.0241586532,1.1595715883,9.0740872144
1520504432002039682,-0.2753055438,0.2458443292,0.2188027142,-0.0155260813,1.1283970281,9.1023953390
1520504432007054682,-0.2727658536,0.2641967115,0.2211024685,-0.0203363522,1.1104102964,9.0943246916
1520504432012069682,-0.2714847667,0.2819702031,0.2217768349,-0.0347671647,1.0996191565,9.0863406687
1520504432017086682,-0.2664401368,0.2953744036,0.2224108541,-0.0227414876,1.0732371306,9.0734657601
1520504432022102682,-0.2601438544,0.3044046863,0.2243619230,-0.0263491907,1.0264709351,9.0956272146
1520504432027118682,-0.2533450607,0.3140208487,0.2252343209,-0.0059055396,1.0060839556,9.0977723953
1520504432032135682,-0.2457952755,0.3210126604,0.2268969487,0.0205509501,0.9856965079,9.1742362638
1520504432037150682,-0.2420254872,0.3204277261,0.2282382311,0.0806793357,0.9449210505,9.1132592829
1520504432042165682,-0.2317283550,0.3143054034,0.2308778696,0.0506151429,0.9413259708,9.1309875767
1520504432047183682,-0.2231954190,0.3041015512,0.2340307438,0.0650459554,0.9233377405,9.1169189286
1520504432052197682,-0.2131560112,0.2924391819,0.2379813399,0.1035281222,0.8993519349,9.0689198515
1520504432057214682,-0.2068839766,0.2813537342,0.2435666584,0.1540359662,0.8825600353,9.0649581780
1520504432062228682,-0.1970954717,0.2699826509,0.2475199443,0.1816950236,0.8645707747,9.0484364864
1520504432067246682,-0.1875518479,0.2612244603,0.2550108013,0.2165694873,0.8094075991,9.0388536778
1520504432072260682,-0.1792644516,0.2536356862,0.2608896090,0.2261900290,0.7974154456,9.0004209802
1520504432077277682,-0.1702237351,0.2440002314,0.2694569138,0.2201771904,0.7890219309,9.0411627293
1520504432082293682,-0.1599277987,0.2340767981,0.2769374783,0.1588462370,0.7650438991,9.0731609607
1520504432087309682,-0.1513912990,0.2264954067,0.2801103603,0.1540359662,0.7374640440,9.0790453955
1520504432092323682,-0.1405928903,0.2189141729,0.2835495876,0.1600488048,0.7698403672,9.1033603211
1520504432097341682,-0.1280340647,0.2142562149,0.2837612280,0.1155537994,0.7458610241,9.1642482806
1520504432102357682,-0.1159804752,0.2081433225,0.2831510487,0.1215666379,0.7734407855,9.1746221561
1520504432107373682,-0.1064384626,0.2043663493,0.2803989541,0.1901129976,0.7422577959,9.2448761519
1520504432112388682,-0.0936195016,0.2037769466,0.2846994394,0.2442285447,0.7410544408,9.3117549431
1520504432117404682,-0.0845750372,0.1999830225,0.2881708339,0.2658747635,0.7338579124,9.3452534428
1520504432122420682,-0.0752836727,0.1932768085,0.2910784390,0.2658747635,0.7410527549,9.3615164421
1520504432127436682,-0.0682466508,0.1918139014,0.2943008061,0.2297977321,0.7518478285,9.4269371312
1520504432132452682,-0.0637305795,0.1848151607,0.2969445100,0.2478362478,0.7482490024,9.4453593666
1520504432137467682,-0.0589655813,0.1775316897,0.2971506110,0.2370131384,0.7794274963,9.5337572498
1520504432142483682,-0.0567199067,0.1655850818,0.2973258099,0.2598619249,0.7782265763,9.5614274780
1520504432147499682,-0.0574871405,0.1533357098,0.3012920289,0.2754953052,0.8022081672,9.5612519254
1520504432152516682,-0.0577478601,0.1442932214,0.3047406766,0.3284082846,0.7950092037,9.6037432453
1520504432157532682,-0.0597595406,0.1381500489,0.3133551943,0.3103697689,0.8153959958,9.5701967677
1520504432162547682,-0.0617821276,0.1256037011,0.3192153451,0.3127749043,0.8393786169,9.5108806292
1520504432167564682,-0.0675694456,0.1165524908,0.3251091738,0.3091672012,0.8189935107,9.5411513659
1520504432172579682,-0.0733597940,0.1072186371,0.3277542287,0.3019517949,0.8082018088,9.5458806961
1520504432177596682,-0.0799065010,0.0967218637,0.3293096078,0.3043569303,0.8333835704,9.5934806320
1520504432182610682,-0.0829315979,0.0868004965,0.3341094497,0.2923312532,0.8165965411,9.6180190763
1520504432187627682,-0.0909833260,0.0783428241,0.3356831908,0.3151800397,0.8345818679,9.6456705951
1520504432192642682,-0.0992862629,0.0707628489,0.3359113383,0.2730901698,0.8549705332,9.6274660900
1520504432197659682,-0.1073305971,0.0687200066,0.3359107118,0.2562542218,0.8681623891,9.6520221211
1520504432202675682,-0.1173912144,0.0634762459,0.3339955440,0.2863184146,0.8645626263,9.6947323290
1520504432207692682,-0.1264504156,0.0570746253,0.3293641579,0.3260031491,0.8501698504,9.6699550712
1520504432212706682,-0.1362610984,0.0506646965,0.3277101769,0.3404339617,0.8321816202,9.6279949683
1520504432217723682,-0.1428028734,0.0454201289,0.3266001125,0.3704981545,0.8261835766,9.6207353248
1520504432222739682,-0.1478391411,0.0393056406,0.3241278492,0.3524596388,0.7698253816,9.6337494431
1520504432227755682,-0.1538793770,0.0323085921,0.3246267883,0.3608776128,0.7566341813,9.6638961133
1520504432232771682,-0.1579080775,0.0264793263,0.3245897941,0.4330316756,0.6990698214,9.6167641800
1520504432237786682,-0.1616832367,0.0218135117,0.3253728633,0.4438547850,0.6343153956,9.6132355469
1520504432242801682,-0.1609352796,0.0174430392,0.3253381168,0.3969546442,0.6391156100,9.6032280712
1520504432247818682,-0.1621978857,0.0142431445,0.3231516294,0.3548647743,0.5599756201,9.6141742201
1520504432252835682,-0.1637122767,0.0098739712,0.3223094457,0.3692955868,0.5275977048,9.6059303240
1520504432257850682,-0.1619601750,0.0066781718,0.3190351740,0.3572699097,0.4832304457,9.6060906401
1520504432262865682,-0.1594522440,0.0037689532,0.3176555464,0.3933469411,0.4556474062,9.5592806250
1520504432267881682,-0.1549371803,-0.0023483497,0.3176004606,0.3921443734,0.4292664105,9.5755880709
1520504432272898682,-0.1506690638,-0.0067239997,0.3199940931,0.4161957276,0.4256671161,9.6009246448
1520504432277914682,-0.1426418029,-0.0183813293,0.3217840558,0.4390445142,0.4256653365,9.6134858322
1520504432282929682,-0.1298394723,-0.0312088821,0.3259911715,0.4630958684,0.4496462718,9.6353090794
1520504432287945682,-0.1175422484,-0.0463698934,0.3309930736,0.4402470819,0.4916179662,9.7005706100
1520504432292960682,-0.1044873919,-0.0600795141,0.3381690582,0.4125880245,0.4964166820,9.7333751797
1520504432297978682,-0.0919300756,-0.0708791287,0.3467209366,0.3837263994,0.5024146320,9.7720010049
1520504432302993682,-0.0743514834,-0.0825392728,0.3509280769,0.3488519357,0.4952225056,9.7409695808
1520504432308009682,-0.0522417303,-0.0904183870,0.3584022670,0.3464468003,0.4748373057,9.8258493783
1520504432313024682,-0.0339012400,-0.0982997065,0.3661540039,0.3885366702,0.4940202744,9.8254209919
1520504432318041682,-0.0115363146,-0.1026791942,0.3725722207,0.4173982953,0.4652386564,9.8960589159
1520504432323056682,0.0125911250,-0.1079474433,0.3846619651,0.4859446550,0.4064754370,9.8954490253
1520504432328073682,0.0374751428,-0.1120535012,0.3981119311,0.5280345249,0.3633031037,9.8857842929
1520504432333089682,0.0623602621,-0.1146997227,0.4104908289,0.5520858792,0.3537081071,9.8971809860
1520504432338105682,0.0900092687,-0.1190997242,0.4252861673,0.5701243949,0.3860834936,9.8934874062
1520504432343119682,0.1171617503,-0.1185442003,0.4393085940,0.5328447958,0.3908829588,9.8403869637
1520504432348136682,0.1440618825,-0.1168144957,0.4500938289,0.5196165509,0.3884857082,9.8277344745
1520504432353152682,0.1724709955,-0.1142100467,0.4608829328,0.4919574935,0.4136698113,9.8430870060
1520504432358167682,0.1968578846,-0.1092607997,0.4660158251,0.4378419465,0.4100766047,9.7680778846
1520504432363183682,0.2207479821,-0.1005259361,0.4719901887,0.4282214047,0.4112764944,9.7844403710
1520504432368200682,0.2421260205,-0.0891608551,0.4747426765,0.4318291079,0.4040813709,9.7786015521
1520504432373216682,0.2622430759,-0.0815864506,0.4782802355,0.4173982953,0.3836971076,9.8147883542
1520504432378231682,0.2788435786,-0.0716772492,0.4799482920,0.3861315348,0.3561193130,9.8232545881
1520504432383247682,0.2896571711,-0.0661374380,0.4802410074,0.3921443734,0.3177463512,9.7930177389
1520504432388263682,0.3024815501,-0.0603054547,0.4805322122,0.3272057169,0.2709849323,9.8192625831
1520504432393278682,0.3132903087,-0.0562130965,0.4772967155,0.3320159877,0.2302137832,9.8076340809
1520504432398294682,0.3193262871,-0.0486165251,0.4705796670,0.2754953052,0.1582697599,9.7966329394
1520504432403311682,0.3225930151,-0.0415899656,0.4587229342,0.2779004406,0.0803254450,9.7618212177
1520504432408327682,0.3273644586,-0.0360160958,0.4454995562,0.2827107115,-0.0096104614,9.7281599232
1520504432413342682,0.3316342336,-0.0278112210,0.4290505686,0.2478362478,-0.0635690643,9.7378491418
1520504432418359682,0.3288627173,-0.0219343517,0.4104324975,0.2923312532,-0.1007458828,9.7293172965
1520504432423375682,0.3260853557,-0.0180869761,0.3880112222,0.2935338209,-0.1714952615,9.7340231583
1520504432428390682,0.3255684957,-0.0151128679,0.3655790771,0.3320159877,-0.1798922416,9.7847911159
1520504432433406682,0.3210204300,-0.0188378086,0.3414799933,0.2971415240,-0.2002749126,9.7491239787
1520504432438422682,0.3104340691,-0.0263465552,0.3149282976,0.3091672012,-0.2290552194,9.7501971362
1520504432443437682,0.2998496879,-0.0323983792,0.2883877174,0.2935338209,-0.1834866657,9.8153849285
1520504432448455682,0.2877497240,-0.0451570086,0.2634220820,0.2959389563,-0.1247289723,9.8234392284
1520504432453470682,0.2753921728,-0.0614072517,0.2365364149,0.2983440917,-0.0695687001,9.8129027331
1520504432458486682,0.2620277994,-0.0785305855,0.2091048538,0.2550516541,-0.0120065880,9.8527808813
1520504432463501682,0.2464025676,-0.0968283561,0.1846446056,0.2442285447,0.1007134547,9.8911270594
1520504432468518682,0.2312837598,-0.1127970390,0.1610128464,0.2779004406,0.1570704321,9.9197979578
1520504432473534682,0.2139014160,-0.1296385762,0.1365669807,0.3007492272,0.2434067631,10.0368679086
1520504432478550682,0.1982772780,-0.1494034675,0.1158832596,0.3103697689,0.3333415455,10.0982801973
1520504432483566682,0.1826537085,-0.1700483399,0.0973572365,0.3344211231,0.4076863786,10.1839722498
1520504432488582682,0.1665273178,-0.1921561592,0.0809853985,0.3993597796,0.4784306059,10.2111626406
1520504432493597682,0.1526630988,-0.2145573908,0.0656893206,0.4390445142,0.5251939917,10.2130550574
1520504432498614682,0.1395598094,-0.2340546797,0.0542017159,0.4703112747,0.5419795224,10.1999507717
1520504432503629682,0.1269691854,-0.2489020026,0.0473480273,0.5665166917,0.6079247529,10.2117336370
1520504432508646682,0.1141320101,-0.2617162881,0.0429452801,0.6062014263,0.6654804025,10.2078048100
1520504432513661682,0.1030555928,-0.2754135076,0.0420496932,0.6927863016,0.6834607653,10.1999716421
1520504432518677682,0.0960044417,-0.2867824462,0.0427876988,0.7336736038,0.6918515638,10.1786468937
1520504432523693682,0.0904660468,-0.2975818653,0.0486677223,0.7769660415,0.7434112303,10.1956073894
1520504432528708682,0.0839211824,-0.3086701489,0.0534652060,0.8671586200,0.7434042058,10.0854879784
1520504432533725682,0.0806475976,-0.3183082427,0.0612437425,0.9176664639,0.7182183232,10.0861830661
1520504432538741682,0.0781335390,-0.3244523406,0.0701297395,0.9357049796,0.7062255140,10.0035069629
1520504432543756682,0.0768951062,-0.3189514915,0.0831605148,0.9525409276,0.6966310794,9.9045702108
1520504432548773682,0.0766647736,-0.3108256026,0.0953977932,0.9753897141,0.6702482106,9.8288341831
1520504432553788682,0.0776982390,-0.2971621870,0.1074044307,1.0355180998,0.6438624382,9.7922481932
1520504432558805682,0.0784932998,-0.2727118148,0.1173294220,0.9645666047,0.5779152409,9.6837615735
1520504432563819682,0.0787945133,-0.2436074999,0.1302669209,0.9044382191,0.5215603240,9.5809709733
1520504432568836682,0.0795963525,-0.2130329537,0.1383447757,0.8815894325,0.4592068015,9.4673640675
1520504432573852682,0.0824092449,-0.1809963266,0.1448067367,0.8936151097,0.4052445459,9.3417880902
1520504432578868682,0.0814528744,-0.1489619048,0.1515462445,0.8839945680,0.3237037463,9.3175562226
1520504432583884682,0.0784902493,-0.1137223123,0.1580433941,0.8647534845,0.2793370492,9.2817603065
1520504432588901682,0.0777892275,-0.0778961510,0.1634586058,0.8503226720,0.2301734158,9.1878150498
1520504432593915682,0.0760813833,-0.0429430803,0.1683279233,0.8130430729,0.1498339109,9.1196897590
1520504432598930682,0.0698529790,-0.0047814529,0.1713362745,0.7805737446,0.1570312823,9.0781615971
1520504432603948682,0.0668866217,0.0304705229,0.1732341439,0.7757634738,0.1462393931,9.0584624942
1520504432608963682,0.0613990511,0.0604802347,0.1737439355,0.8250687500,0.0922742340,9.0801159423
1520504432613978682,0.0544043030,0.0907800119,0.1745292964,0.8322841563,0.0646934423,9.1149369254
1520504432618995682,0.0453931347,0.1158304379,0.1766311051,0.8467149689,0.1102596544,9.1565892121
1520504432624010682,0.0376330934,0.1370940856,0.1784311341,0.9128561931,0.1006613798,9.1745490920
1520504432629027682,0.0281116277,0.1563158957,0.1807599604,0.9681743079,0.0910639480,9.1682092944
1520504432634043682,0.0173311118,0.1720333148,0.1857699022,1.0343155321,0.0802665329,9.1850081996
1520504432639059682,0.0052923845,0.1859997492,0.1915804768,1.0595694540,0.1198362000,9.2068045404
1520504432644074682,-0.0064932483,0.1982041347,0.2025176182,1.0956464854,0.0946514413,9.2239101041
1520504432649091682,-0.0170288087,0.2063325428,0.2123391193,1.1148875688,0.0694679939,9.2121259398
1520504432654106682,-0.0288218708,0.2153418965,0.2194641642,1.0908362146,0.1078423606,9.2192954858
1520504432659123682,-0.0421238314,0.2214273447,0.2300868753,1.0427335061,0.1102443879,9.2499770922
1520504432664137682,-0.0509046555,0.2263512122,0.2398806553,1.0078590424,0.1138445253,9.2108001364
1520504432669155682,-0.0609420562,0.2333237487,0.2461752339,0.9826051204,0.1390284410,9.2017242348
1520504432674171682,-0.0692237953,0.2382594680,0.2516393461,0.9477306567,0.1354337359,9.2125264850
1520504432679186682,-0.0782632965,0.2426223209,0.2533127698,0.9417178182,0.1390316255,9.2567429726
1520504432684203682,-0.0860464839,0.2452300746,0.2576759803,0.9525409276,0.0910651656,9.3473316291
1520504432689218682,-0.0935758673,0.2487077098,0.2636686687,0.9657691724,0.0478950801,9.3693257048
1520504432694233682,-0.0985972295,0.2501539222,0.2669356694,1.0126693132,0.0227094785,9.3537858923
1520504432699250682,-0.1058778702,0.2501277572,0.2756066730,1.0030487715,-0.0408442147,9.4120487054
1520504432704266682,-0.1088825614,0.2521393154,0.2856380334,0.9826051204,-0.1127910479,9.4367228748
1520504432709281682,-0.1106401674,0.2494994116,0.2918438484,0.9826051204,-0.1511635414,9.4181659904
1520504432714296682,-0.1111418477,0.2477399810,0.2958896317,0.9874153913,-0.1763458650,9.4413866054
1520504432719313682,-0.1126440619,0.2485989753,0.3013100192,0.9537434953,-0.1883346467,9.4498610480
1520504432724330682,-0.1103860734,0.2439289678,0.3045168001,0.9128561931,-0.2063185686,9.4735194391
1520504432729345682,-0.1078784051,0.2413133190,0.3023277579,0.9345024119,-0.2350996247,9.5198225704
1520504432734361682,-0.1048658065,0.2407390157,0.2996122521,0.9501357922,-0.2806681784,9.5348227110
1520504432739377682,-0.1021042480,0.2384075657,0.3001304253,0.9525409276,-0.3022528933,9.5394689248
1520504432744392682,-0.0958274030,0.2363798050,0.2965860990,0.9633640370,-0.3058511575,9.5149620642
1520504432749409682,-0.0908070953,0.2346443934,0.2925052375,0.9381101150,-0.3046500502,9.5128824132
1520504432754424682,-0.0845344217,0.2326304729,0.2838205392,0.8358918594,-0.2890532636,9.4917814064
1520504432759441682,-0.0770119342,0.2282976233,0.2707869882,0.7986122603,-0.2590718496,9.5339522121
1520504432764456682,-0.0725066166,0.2227980542,0.2577501456,0.7529146872,-0.2578691501,9.5425308425
1520504432769473682,-0.0682530800,0.2175926849,0.2436338092,0.7324710361,-0.2099019409,9.6054388285
1520504432774488682,-0.0630026554,0.2091955913,0.2246213258,0.6903811662,-0.1379502374,9.7173441647
1520504432779504682,-0.0554961319,0.1955493634,0.2074584476,0.7180402236,-0.0803936513,9.7402616992
1520504432784520682,-0.0522689020,0.1772422229,0.1891857508,0.7360787393,-0.0204380350,9.8585663397
1520504432789537682,-0.0500468244,0.1586418473,0.1714537896,0.7553198227,0.0263269430,9.9361970995
1520504432794551682,-0.0448082434,0.1382834195,0.1577610777,0.7709532029,0.0179317424,9.9953224608
1520504432799569682,-0.0423409436,0.1132639416,0.1432262926,0.8070302343,0.0467083028,10.0298075636
1520504432804584682,-0.0396258654,0.0853292600,0.1292099018,0.7589275258,0.0718939981,10.0732505360
1520504432809599682,-0.0376644211,0.0571007131,0.1160043257,0.8082328020,0.0946738261,10.0866941387
1520504432814615682,-0.0344449890,0.0291604010,0.1041513686,0.8394995626,0.0634937399,10.0527180354
1520504432819632682,-0.0304694218,0.0009202585,0.0955413390,0.8960202451,0.0802773038,9.9952064733
1520504432824647682,-0.0264831324,-0.0241357787,0.0948015943,0.9393126828,0.0550919831,9.9715667683
1520504432829663682,-0.0234992234,-0.0474453594,0.0946181468,0.9501357922,0.0107229445,9.9575589609
1520504432834678682,-0.0177537167,-0.0748427101,0.0979155388,0.8671586200,0.0275173730,9.9176752006
1520504432839695682,-0.0109914495,-0.0958386770,0.1047770684,0.7733583384,0.0347195210,9.8500146857
1520504432844710682,-0.0084947427,-0.1089550952,0.1065661836,0.6194296711,0.0299349478,9.7864375488
1520504432849726682,-0.0027272346,-0.1188635468,0.1078325935,0.5508833115,0.0815033246,9.8114594785
1520504432854743682,-0.0004760949,-0.1232181315,0.1021135829,0.3909418056,0.1270831175,9.8768897336
1520504432859759682,0.0012751757,-0.1252403801,0.0958721987,0.3211928783,0.1918421326,9.9019105056
1520504432864774682,0.0012727294,-0.1205490905,0.0850859322,0.2538490864,0.1942456584,9.9966973103
1520504432869790682,0.0010209601,-0.1158644551,0.0767350455,0.2261900290,0.1702650042,10.0283678002
1520504432874806682,-0.0040086114,-0.1138056080,0.0689141106,0.2273925967,0.1750614722,10.1097014946
1520504432879823682,-0.0140586632,-0.1088399838,0.0630185623,0.2598619249,0.0887208329,10.1943061591
1520504432884838682,-0.0210935249,-0.1041645626,0.0571151902,0.2766978729,-0.0156056952,10.2012168846
1520504432889854682,-0.0301385146,-0.0997834989,0.0520249665,0.3007492272,-0.1271276278,10.1941186683
1520504432894869682,-0.0396898342,-0.0953902488,0.0423363960,0.3031543626,-0.1343226576,10.1789944028
1520504432899887682,-0.0525129155,-0.0921528903,0.0285868121,0.3175851752,-0.1810902581,10.2195745847
1520504432904903682,-0.0643358628,-0.0932888195,0.0158841987,0.3632827482,-0.1810938171,10.2528319673
1520504432909918682,-0.0751560298,-0.0944163422,0.0002037135,0.4510701913,-0.1091522289,10.3204738311
1520504432914933682,-0.0814515868,-0.0949607805,-0.0149396348,0.4943626290,-0.0468002987,10.3513695302
1520504432919950682,-0.0890026264,-0.0949236705,-0.0298056574,0.5785423689,0.0575183620,10.4317985205
1520504432924965682,-0.0937786920,-0.0884815737,-0.0421929930,0.6242399420,0.1810262665,10.4823676204
1520504432929980682,-0.0965445041,-0.0840871222,-0.0513530732,0.6951914370,0.3189218893,10.4885154118
1520504432934997682,-0.0980446326,-0.0750394955,-0.0569628210,0.7505095518,0.3872685850,10.5448553806
1520504432940013682,-0.0975183674,-0.0584340227,-0.0554843091,0.7060145464,0.4760084418,10.5219590575
1520504432945028682,-0.0969917102,-0.0430006439,-0.0515797765,0.6831657599,0.5167809957,10.5279524158
1520504432950045682,-0.0974643598,-0.0258310066,-0.0433313042,0.6218348065,0.5479634234,10.5122489555
1520504432955061682,-0.0956751985,-0.0124659644,-0.0286228309,0.5508833115,0.5923371450,10.5803006377
1520504432960077682,-0.0933951851,-0.0072573068,-0.0147891752,0.5051857384,0.6031329679,10.6051399288
1520504432965094682,-0.0946464260,-0.0131291955,0.0014014505,0.3729032900,0.6151346747,10.5715514730
1520504432970108682,-0.0961458450,-0.0178407436,0.0194952565,0.2995466595,0.6954827963,10.6058893104
1520504432975125682,-0.0968905325,-0.0222620686,0.0381309772,0.1961258361,0.7182745192,10.5603879696
1520504432980141682,-0.0963803450,-0.0246286410,0.0513690079,0.0421971689,0.7242822097,10.4886653010
1520504432985156682,-0.0941085958,-0.0229049428,0.0608472523,-0.0684390607,0.7650616009,10.4455409384
1520504432990172682,-0.0923351279,-0.0162198919,0.0673882177,-0.1273648786,0.7554730668,10.4008002267
1520504432995187682,-0.0895542182,-0.0069076157,0.0723240486,-0.1850881289,0.7782612305,10.3955291322
1520504433000203682,-0.0842593519,0.0032805270,0.0769913356,-0.1778727226,0.7674684048,10.4140637291
1520504433005221682,-0.0772050841,0.0143464262,0.0805798413,-0.1321751495,0.7818545308,10.4298749203
1520504433010235682,-0.0681362505,0.0268627513,0.0868811875,-0.0900852795,0.7698598484,10.4643412553
1520504433015252682,-0.0603202100,0.0440494778,0.0899738860,-0.1273648786,0.7770575944,10.4774806795
1520504433020268682,-0.0492246611,0.0693911520,0.0950165847,-0.1947086706,0.7542791713,10.4491047813
1520504433025283682,-0.0391336058,0.0944374056,0.1014116567,-0.1923035351,0.7075125075,10.4293705282
1520504433030300682,-0.0282957303,0.1168731488,0.1034565864,-0.2656601656,0.6799379910,10.4789214775
1520504433035315682,-0.0174689848,0.1314429666,0.1049004011,-0.2969269262,0.6655507411,10.4978341443
1520504433040331682,-0.0038806769,0.1451448128,0.1044385912,-0.3173705773,0.6163875760,10.5097025127
1520504433045346682,0.0084451112,0.1550610817,0.1028680313,-0.3534476087,0.5924075773,10.4856720282
1520504433050362682,0.0190043273,0.1591475139,0.1017973686,-0.3642707181,0.5516376458,10.4439799489
1520504433055378682,0.0320669463,0.1582908633,0.0971671495,-0.3919297755,0.4880853576,10.4106089655
1520504433060394682,0.0438609689,0.1472294346,0.0946258232,-0.3847143692,0.4473140212,10.4024434850
1520504433065410682,0.0541363350,0.1294713984,0.0898717991,-0.3787015306,0.4353221487,10.3442894554
1520504433070427682,0.0641555174,0.1076316951,0.0858987562,-0.3919297755,0.3789635790,10.2642852371
1520504433075442682,0.0744197966,0.0817148922,0.0810824857,-0.4219939683,0.3118140568,10.1368075115
1520504433080458682,0.0811621089,0.0531749786,0.0759821957,-0.4183862652,0.2482593334,9.9880799452
1520504433085474682,0.0889090011,0.0243448027,0.0706072698,-0.4628812706,0.1643229692,9.9177041048
1520504433090490682,0.0959007618,-0.0065304593,0.0671120038,-0.5085788436,0.1283523156,9.8531039157
1520504433095506682,0.1006235764,-0.0417730046,0.0619643166,-0.5194019531,0.0707944182,9.7695910248
1520504433100523682,0.1053464812,-0.0761377543,0.0554705692,-0.5699097970,-0.0635053755,9.6911878143
1520504433105538682,0.1098265670,-0.1084818499,0.0560270434,-0.6083919638,-0.1402473655,9.6033142733
1520504433110553682,0.1100404690,-0.1361640100,0.0560859294,-0.6023791253,-0.2385773485,9.5638387394
1520504433115570682,0.1100009159,-0.1655953041,0.0564024896,-0.6288356149,-0.2997314496,9.4955893936
1520504433120585682,0.1061936799,-0.1953267439,0.0594292865,-0.6889640006,-0.3500906644,9.5008723345
1520504433125601682,0.1008796584,-0.2259402123,0.0651576735,-0.7310538705,-0.3273037182,9.3955046942
1520504433130618682,0.0948155275,-0.2524687653,0.0687542166,-0.7082050840,-0.3464917445,9.3209237945
1520504433135633682,0.0872508133,-0.2758021487,0.0758951107,-0.6853562974,-0.3345021199,9.2556096436
1520504433140650682,0.0771769803,-0.2971004673,0.0844089630,-0.6853562974,-0.3045236093,9.2160675157
1520504433145664682,0.0661007237,-0.3163594879,0.0929402439,-0.6420638598,-0.2865398747,9.1610078277
1520504433150681682,0.0520185096,-0.3309684640,0.1055708832,-0.5855431773,-0.2541674853,9.0872110488
1520504433155697682,0.0394433868,-0.3452818227,0.1168482159,-0.5446558750,-0.2253912995,9.0135699436
1520504433160712682,0.0258740184,-0.3534852414,0.1314206509,-0.5410481719,-0.1882182274,9.0123364350
1520504433165728682,0.0097977304,-0.3581974008,0.1476477056,-0.4905403280,-0.1450531059,8.9932084231
1520504433170746682,-0.0060262512,-0.3637908997,0.1665730832,-0.4304119423,-0.1402612272,8.9240519996
1520504433175760682,-0.0203371158,-0.3653036961,0.1852562379,-0.4592735674,-0.1306658559,8.9115399828
1520504433180777682,-0.0364078603,-0.3659364722,0.2015144157,-0.4280068069,-0.1390622741,8.9124059806
1520504433185793682,-0.0539794116,-0.3648368289,0.2234701963,-0.4520581611,-0.1534500860,8.8847626589
1520504433190808682,-0.0700474745,-0.3643077090,0.2410899960,-0.3859169369,-0.1462603947,8.8736525692
1520504433195824682,-0.0858616433,-0.3620309119,0.2589932133,-0.3462322024,-0.1414669238,8.7814522526
1520504433200839682,-0.0989141163,-0.3600371320,0.2741836147,-0.3113577387,-0.2026258015,8.7509566995
1520504433205857682,-0.1117147612,-0.3571669148,0.2885685809,-0.2897115199,-0.1690515555,8.7449025472
1520504433210871682,-0.1232565794,-0.3522550568,0.3024256834,-0.2235702957,-0.1738532685,8.7349662948
1520504433215888682,-0.1310300991,-0.3467523970,0.3138453180,-0.1730624517,-0.1822511852,8.7891036336
1520504433220904682,-0.1403160691,-0.3424056680,0.3214712181,-0.1045160921,-0.1990444898,8.7721828008
1520504433225920682,-0.1468364779,-0.3377693852,0.3301763910,-0.0083106751,-0.1726708933,8.7956256939
1520504433230936682,-0.1513382241,-0.3267203983,0.3383856461,0.0626408200,-0.1426979086,8.8483644840
1520504433235951682,-0.1535697028,-0.3098450201,0.3474468001,0.1744796173,-0.1163255297,8.8600337718
1520504433240967682,-0.1547960255,-0.2912129281,0.3535434209,0.2706850343,-0.0875536523,8.9136900689
1520504433245982682,-0.1547612397,-0.2711321624,0.3628953743,0.3500545034,-0.1127417828,8.9908057363
1520504433251000682,-0.1519585130,-0.2475500572,0.3709161412,0.4053726182,-0.0887632826,9.0634589860
1520504433256015682,-0.1489062045,-0.2257183459,0.3797347406,0.4342342433,-0.0419990540,9.1991033031
1520504433261030682,-0.1456020209,-0.2018395603,0.3858629759,0.4642984361,-0.0479970976,9.3022473353
1520504433266048682,-0.1428053159,-0.1805790616,0.3903488615,0.4173982953,-0.0204132151,9.3747298628
1520504433271063682,-0.1382462181,-0.1564018433,0.3940420732,0.4498676236,-0.0384028503,9.4418357158
1520504433276078682,-0.1329350311,-0.1348526178,0.3998782442,0.4125880245,-0.0240102617,9.5270210491
1520504433281094682,-0.1308931478,-0.1147601379,0.4051682753,0.4186008630,-0.0419978364,9.5862494056
1520504433286110682,-0.1276058495,-0.0998989755,0.4055461311,0.4041700505,-0.0539881167,9.6561301969
1520504433291126682,-0.1248347016,-0.0958228797,0.4071953957,0.4065751859,-0.0336029168,9.6770054992
1520504433296143682,-0.1233209692,-0.0914515211,0.4072259417,0.3608776128,-0.0347984982,9.6658300211
1520504433301158682,-0.1235717858,-0.0917459178,0.4083063689,0.3897392379,-0.0383981673,9.6829847671
1520504433306174682,-0.1220610016,-0.0897063638,0.4085896761,0.3704981545,-0.0515872134,9.6971306382
1520504433311189682,-0.1190419382,-0.0864970388,0.4075263457,0.3572699097,-0.0371964980,9.7170018090
1520504433316205682,-0.1172803374,-0.0841630881,0.4067292257,0.3704981545,-0.0443923708,9.7296636529
1520504433321222682,-0.1122551527,-0.0847438881,0.4067154450,0.4258162693,-0.0551889430,9.7547029113
1520504433326237682,-0.1072279843,-0.0824042868,0.4042889822,0.3861315348,-0.1043506096,9.7597856969
1520504433331254682,-0.1019573501,-0.0864779605,0.4028953283,0.4065751859,-0.1103479039,9.7712139972
1520504433336270682,-0.0951760610,-0.0876335560,0.4001683755,0.3608776128,-0.1427211363,9.7658796417
1520504433341284682,-0.0873886552,-0.0890845128,0.3990606081,0.3223954460,-0.1655018072,9.8197350429
1520504433346301682,-0.0778458899,-0.0905223971,0.3933502933,0.2646721958,-0.1846835583,9.9144492553
1520504433351317682,-0.0705630969,-0.0902106750,0.3868458799,0.2586593572,-0.1882805113,9.9412405995
1520504433356333682,-0.0582516458,-0.0887350878,0.3816937539,0.2658747635,-0.1858827924,9.8807365449
1520504433361348682,-0.0481967366,-0.0834723879,0.3765747285,0.2610644926,-0.1451116433,9.9353643734
1520504433366365682,-0.0366335914,-0.0767470756,0.3695701969,0.2658747635,-0.1019429627,10.0084905261
1520504433371380682,-0.0253180952,-0.0679850838,0.3636638772,0.3524596388,-0.0743694765,9.9855401321
1520504433376397682,-0.0137530643,-0.0621441232,0.3604403189,0.3717007222,-0.0204096560,10.0178402617
1520504433381413682,-0.0026879064,-0.0554343048,0.3591181845,0.4234111339,0.0143613889,10.0266001850
1520504433386428682,0.0043544002,-0.0510607802,0.3591384626,0.4594881653,-0.0060268081,10.0971596933
1520504433391445682,0.0111492775,-0.0446513044,0.3605274984,0.4835395195,0.0335429526,10.1363998984
1520504433396459682,0.0186931743,-0.0393961450,0.3578480533,0.4715138424,0.0455352935,10.1423159754
1520504433401477682,0.0204589582,-0.0326855989,0.3549199123,0.4691087070,0.0527303233,10.1469809453
1520504433406491682,0.0202156296,-0.0242238912,0.3506561142,0.4799318164,0.0383397953,10.1178360330
1520504433411507682,0.0179542577,-0.0204207529,0.3447372051,0.4438547850,0.0443383072,10.1507213687
1520504433416525682,0.0161935116,-0.0151473834,0.3339586518,0.4426522173,0.0587280860,10.1065575714
1520504433421540682,0.0109122923,-0.0122093822,0.3242510316,0.4811343841,0.0839070378,10.1433470600
1520504433426556682,0.0058782397,-0.0110137622,0.3123652390,0.4907549258,0.0946985523,10.1478914713
1520504433431572682,-0.0006644409,-0.0101086606,0.2999389319,0.5196165509,0.1450602022,10.1766150366
1520504433436587682,-0.0084700843,-0.0144511581,0.2882865805,0.5665166917,0.1450565495,10.2028878503
1520504433441604682,-0.0180416332,-0.0216987205,0.2730981687,0.6218348065,0.1642384879,10.2093035720
1520504433446619682,-0.0293744812,-0.0333301233,0.2624789579,0.6591144056,0.1774261291,10.2054414207
1520504433451635682,-0.0399604697,-0.0493283564,0.2504722711,0.6855708953,0.1726275069,10.2168100264
1520504433456652682,-0.0535752835,-0.0737720949,0.2362423484,0.7240530621,0.1546374034,10.2083179970
1520504433461666682,-0.0654357139,-0.1020045999,0.2225213504,0.7493069841,0.1390466111,10.1987902406
1520504433466682682,-0.0793039396,-0.1284903138,0.2090879705,0.8190559115,0.0982704044,10.1981511048
1520504433471698682,-0.0941815437,-0.1593530169,0.1977874784,0.8394995626,0.0718877228,10.1863564048
1520504433476715682,-0.1080523686,-0.1890497881,0.1864940117,0.9345024119,0.0718803237,10.1482430988
1520504433481730682,-0.1211572927,-0.2123467307,0.1793062412,0.9886179590,0.0359018963,10.1895886338
1520504433486747682,-0.1324998241,-0.2327269537,0.1713257968,1.0427335061,0.0454908050,10.1878904076
1520504433491762682,-0.1440874091,-0.2493229183,0.1647274487,1.0920387823,0.0322964203,10.1676669158
1520504433496778682,-0.1551638617,-0.2598003394,0.1584453979,1.1870416316,0.0682632338,10.1922743031
1520504433501795682,-0.1652258824,-0.2644540468,0.1538292172,1.3157163769,0.1617861653,10.2164978206
1520504433506810682,-0.1762834229,-0.2632862848,0.1514237323,1.3614139500,0.2205404869,10.2438871857
1520504433511825682,-0.1860747506,-0.2565890089,0.1517636114,1.4516065285,0.2804904836,10.2046000891
1520504433516842682,-0.1913309146,-0.2434896992,0.1559316398,1.4961015338,0.3836130946,10.1843099916
1520504433521859682,-0.1990932062,-0.2263163613,0.1617587341,1.4804681536,0.4447704738,10.2529690143
1520504433526873682,-0.2053349007,-0.1992331734,0.1668469752,1.4347705805,0.5622897943,10.2056513091
1520504433531889682,-0.2062938704,-0.1704098088,0.1757263962,1.4299603096,0.6138532072,10.2416743103
1520504433536906682,-0.2082509042,-0.1348784380,0.1822239020,1.3385651635,0.6450379764,10.3285321444
1520504433541921682,-0.2119692253,-0.0993404721,0.1860192159,1.2243212307,0.6654322613,10.3888935876
1520504433546937682,-0.2129197818,-0.0605932797,0.1887516662,1.1040644594,0.6714373294,10.5062726420
1520504433551952682,-0.2123650975,-0.0238859166,0.1917363005,1.0703925635,0.6702408114,10.6321131000
1520504433556969682,-0.2148405988,0.0046731531,0.1903355547,1.0535566155,0.6426618929,10.7264375259
1520504433561984682,-0.2148062873,0.0279751741,0.1937599523,1.0331129644,0.6378669234,10.8358827209
1520504433567001682,-0.2165405276,0.0439904358,0.1976731316,1.0776079697,0.6114823687,10.9226361558
1520504433572017682,-0.2152692104,0.0536007901,0.1999085270,1.0764054020,0.6246730070,10.9609857486
1520504433577033682,-0.2114879080,0.0567827301,0.2091245405,1.1196978397,0.6486524437,10.9477573963
1520504433582049682,-0.2087237267,0.0500521033,0.2201606573,1.2207135276,0.6378523125,10.9188932407
1520504433587065682,-0.2039559294,0.0386615685,0.2306163792,1.2796393455,0.6906099018,10.9484839849
1520504433592080682,-0.1971859742,0.0191035851,0.2445232175,1.3048932675,0.7109933221,10.9540290197
1520504433597097682,-0.1901689504,-0.0060015324,0.2624455390,1.3337548926,0.7433678657,10.9235007834
1520504433602112682,-0.1818917787,-0.0276059011,0.2790394743,1.3842627365,0.7757407234,10.8578975374
1520504433607128682,-0.1703420493,-0.0460081307,0.2972750716,1.3878704397,0.7949266892,10.7823043558
1520504433612143682,-0.1603000737,-0.0661672709,0.3184761356,1.4071115231,0.8105140162,10.7170218120
1520504433617160682,-0.1484983908,-0.0860350658,0.3399467015,1.4155294971,0.8356953094,10.6344030997
1520504433622176682,-0.1326721865,-0.1029867117,0.3611614847,1.3662242209,0.7997249368,10.5837837533
1520504433627192682,-0.1178513971,-0.1199380231,0.3821075890,1.3145138092,0.7541616281,10.4948464211
1520504433632208682,-0.1017737568,-0.1348411377,0.4000909164,1.3469831374,0.7085917632,10.4515754932
1520504433637223682,-0.0849409027,-0.1497483275,0.4196961190,1.2591956944,0.6786200898,10.3757576948
1520504433642239682,-0.0630843146,-0.1658169011,0.4384714571,1.2050801473,0.6294595471,10.3263601752
1520504433647256682,-0.0419760363,-0.1780992280,0.4578181872,1.1485594648,0.5934897364,10.2827839228
1520504433652271682,-0.0175941851,-0.1851338966,0.4766577737,1.1521671679,0.5419264172,10.2653669299
1520504433657287682,0.0082928678,-0.1924520748,0.4927868779,1.0908362146,0.5155501046,10.2195038550
1520504433662301682,0.0321707689,-0.1962627713,0.5046176585,0.9886179590,0.5395408741,10.1670167762
1520504433667319682,0.0563067002,-0.1951198324,0.5164857648,0.9681743079,0.5311484834,10.1881425387
1520504433672336682,0.0816993491,-0.1925136512,0.5261982858,0.9477306567,0.5287517948,10.1104802184
1520504433677350682,0.1045725920,-0.1925214457,0.5323783695,0.8803868648,0.5695278141,10.0204487156
1520504433682367682,0.1271963434,-0.1899010504,0.5364145607,0.8515252397,0.6007077130,9.9172684222
1520504433687382682,0.1503266992,-0.1831959758,0.5385871202,0.8551329428,0.5827203256,9.8382250582
1520504433692398682,0.1706951004,-0.1744508357,0.5402392836,0.8130430729,0.5719313399,9.7898352132
1520504433697413682,0.1928230404,-0.1627795062,0.5375816764,0.8900074065,0.5443451160,9.6659257252
1520504433702431682,0.2124450724,-0.1470348769,0.5368536809,0.8683611877,0.5311562572,9.5615563231
1520504433707445682,0.2300557454,-0.1321659172,0.5363932958,0.8527278074,0.4604081898,9.4409145086
1520504433712461682,0.2456567374,-0.1146658149,0.5324395557,0.7877891509,0.3752742774,9.3579552400
1520504433717478682,0.2574869768,-0.0959921817,0.5249846120,0.7240530621,0.3189196414,9.2737940583
1520504433722494682,0.2680590519,-0.0778988960,0.5164453723,0.7180402236,0.2397768418,9.1600396525
1520504433727510682,0.2763635922,-0.0618359902,0.5041071289,0.6915837339,0.1738261790,9.0906328401
1520504433732526682,0.2846621971,-0.0486803737,0.4893117416,0.6254425097,0.0755018156,9.0530217535
1520504433737541682,0.2896965556,-0.0340712998,0.4753451748,0.5809475043,-0.0084345486,8.9733487615
1520504433742556682,0.2917085968,-0.0244169444,0.4613464163,0.4883497904,-0.0432024091,9.0010132727
1520504433747573682,0.2924654219,-0.0130111319,0.4460106003,0.4655010038,-0.0683825784,8.9815037776
1520504433752590682,0.2869264900,-0.0112227417,0.4303425448,0.4691087070,-0.1127510551,9.0279976862
1520504433757606682,0.2829017217,-0.0079914068,0.4200937223,0.4234111339,-0.1307346024,9.0377571700
1520504433762619682,0.2750968741,-0.0102876567,0.4060220194,0.4522727590,-0.1055549013,9.0816131628
1520504433767637682,0.2665357935,-0.0160888291,0.3949010446,0.4895523581,-0.0899689793,9.0905322563
1520504433772653682,0.2552142050,-0.0207328307,0.3864995550,0.4847420873,-0.0815746217,9.0882466032
1520504433777668682,0.2426369966,-0.0268437168,0.3816063802,0.5244268218,-0.0851751337,9.1389981784
1520504433782685682,0.2270482481,-0.0306276218,0.3778187744,0.5316422281,-0.0875739765,9.1505517263
1520504433787700682,0.2104560645,-0.0329542696,0.3737736050,0.5280345249,-0.0587943254,9.1586937850
1520504433792716682,0.1966288267,-0.0352820197,0.3705349394,0.5532884469,-0.0815799603,9.1968209467
1520504433797733682,0.1770196969,-0.0373126371,0.3643332266,0.5929731814,-0.0647950851,9.1638782784
1520504433802749682,0.1571616871,-0.0378878870,0.3586841878,0.6302527805,-0.0336203376,9.1332692760
1520504433807764682,0.1365562847,-0.0364361240,0.3576513909,0.6855708953,-0.0348237864,9.1211105732
1520504433812779682,0.1166997686,-0.0367236317,0.3533573046,0.7180402236,-0.0180383492,9.0719681199
1520504433817796682,0.0996143572,-0.0326422021,0.3501736142,0.6975965724,0.0431194046,9.0349188630
1520504433822812682,0.0800159535,-0.0300252356,0.3494183887,0.7348761716,0.0335233777,9.0368896489
1520504433827829682,0.0596543346,-0.0311827231,0.3434952913,0.7769660415,0.0646977506,9.0538817284
1520504433832845682,0.0395461707,-0.0305910766,0.3373145197,0.7938019895,0.1234543201,9.0013640820
1520504433837859682,0.0219558761,-0.0273803553,0.3327723640,0.8034225312,0.1438389581,9.0105477144
1520504433842874682,0.0043641740,-0.0250430592,0.3279529932,0.8551329428,0.1858048455,8.9495719845
1520504433847892682,-0.0104607750,-0.0200785772,0.3217957667,0.8731714585,0.2025914065,8.9505421819
1520504433852907682,-0.0265403207,-0.0116085036,0.3121504543,0.8587406460,0.2217787772,8.9646096606
1520504433857924682,-0.0421169159,-0.0025540071,0.3019675627,0.8587406460,0.2697443942,9.0052379254
1520504433862938682,-0.0519052797,0.0123289875,0.2923594900,0.8695637554,0.2697435512,9.0527804820
1520504433867956682,-0.0634469644,0.0342169050,0.2782087582,0.8611457814,0.2841338919,9.0807398403
1520504433872971682,-0.0749902800,0.0537686472,0.2659340630,0.8419046980,0.3045207777,9.1146094171
1520504433877986682,-0.0862815441,0.0756595768,0.2507006808,0.8118405052,0.3021248383,9.1172286701
1520504433883003682,-0.0970717081,0.0957994824,0.2365352103,0.7962071249,0.2673509836,9.1546033532
1520504433888018682,-0.1053461081,0.1194435429,0.2199568366,0.7637377967,0.2733492146,9.1479406793
1520504433893034682,-0.1143756788,0.1427988371,0.2022954563,0.7709532029,0.2841409164,9.2141021303
1520504433898051682,-0.1211497229,0.1603214994,0.1867497810,0.7264581976,0.2637589946,9.2366358312
1520504433903066682,-0.1289305070,0.1749219099,0.1741597466,0.7456992810,0.2577617940,9.2875887310
1520504433908083682,-0.1382231691,0.1889498871,0.1575098779,0.7276607653,0.2649580414,9.3423780567
1520504433913097682,-0.1482759768,0.1977297337,0.1419035774,0.7204453590,0.2709543055,9.3703338952
1520504433918114682,-0.1573233266,0.2062164043,0.1271048247,0.6807606245,0.2409788857,9.3416957967
1520504433923130682,-0.1676322278,0.2117923795,0.1109334452,0.6963940047,0.2205922809,9.3345906460
1520504433928146682,-0.1761885490,0.2124147785,0.0949915521,0.6831657599,0.2409786983,9.3695638415
1520504433933162682,-0.1850001719,0.2104160752,0.0784890261,0.6278476451,0.1978139515,9.3852522417
1520504433938178682,-0.1930614148,0.2069658436,0.0600801633,0.5617064209,0.1618448901,9.3975525395
1520504433943193682,-0.1978576626,0.2029377650,0.0403080575,0.5099960092,0.1246755643,9.4352807130
1520504433948209682,-0.2019018133,0.1992086506,0.0178313156,0.4655010038,0.0827091149,9.5438341147
1520504433953225682,-0.2074566150,0.1940249366,-0.0057359250,0.4582855976,0.0671208514,9.5671624256
1520504433958240682,-0.2110006732,0.1894262362,-0.0298435449,0.4450573527,0.0371433710,9.6126440289
1520504433963256682,-0.2142974354,0.1822066303,-0.0545127312,0.4234111339,0.0275519335,9.6674848405
1520504433968273682,-0.2158376579,0.1729472935,-0.0789302002,0.5400602021,-0.0168253472,9.7210134814
1520504433973289682,-0.2171261073,0.1604667999,-0.0974205802,0.5520858792,-0.0240211263,9.7406598941
1520504433978305682,-0.2169049642,0.1476882281,-0.1132105246,0.5833526397,0.0011583874,9.8065732119
1520504433983320682,-0.2141697351,0.1349069988,-0.1276524068,0.6458861608,0.0131449214,9.8536007577
1520504433988338682,-0.2119368019,0.1200756828,-0.1383212746,0.6567092702,0.0479191507,9.9278387144
1520504433993352682,-0.2094526168,0.1040738281,-0.1471056802,0.6675323796,0.0802950992,9.9672146912
1520504433998368682,-0.2067129107,0.0906923474,-0.1550589071,0.6555067025,0.0707029124,10.0289347260
1520504434003384682,-0.2014664183,0.0732346531,-0.1638595621,0.6494938639,0.1162707168,10.0800831504
1520504434008400682,-0.1947096788,0.0540132169,-0.1667243462,0.6506964316,0.1270628869,10.1660595739
1520504434013415682,-0.1879484544,0.0371184864,-0.1679480702,0.5568961500,0.1390615967,10.2157709210
1520504434018433682,-0.1834460575,0.0231403571,-0.1704980924,0.5196165509,0.1438610618,10.2637770025
1520504434023448682,-0.1779389907,0.0097497614,-0.1746688107,0.4823369518,0.1702450546,10.3198970436
1520504434028464682,-0.1726783378,0.0004406358,-0.1796195767,0.4510701913,0.2086199833,10.3468932671
1520504434033479682,-0.1661548593,-0.0056693235,-0.1821133094,0.4113854568,0.2278093208,10.3995573025
1520504434038494682,-0.1553545923,-0.0079881534,-0.1851271680,0.3656878837,0.3165492713,10.4952113678
1520504434043511682,-0.1450518617,-0.0059334986,-0.1891889305,0.3464468003,0.3249447528,10.5511733731
1520504434048527682,-0.1354986799,-0.0036008663,-0.1883772436,0.3440416648,0.3513260294,10.5871975204
1520504434053543682,-0.1292127357,-0.0018537399,-0.1870228437,0.3416365294,0.4040883954,10.6720059882
1520504434058559682,-0.1191505816,0.0033849217,-0.1832138546,0.3717007222,0.4484542495,10.8029923631
1520504434063574682,-0.1095870225,0.0112443904,-0.1788428324,0.4149931599,0.5012130564,10.9175717816
