#timestamp [ns],w_RS_S_x [rad s^-1],w_RS_S_y [rad s^-1],w_RS_S_z [rad s^-1],a_RS_S_x [m s^-2],a_RS_S_y [m s^-2],a_RS_S_z [m s^-2]
1520603863154984026,-0.1777389446,0.0415755294,0.0179360838,0.3296108523,1.2278988028,9.5719315220
1520603863160000026,-0.1714492172,0.0459443881,0.0195810373,0.3296108523,1.2123099773,9.4847859269
1520603863165016026,-0.1666742728,0.0471161675,0.0179577866,0.3620801805,1.1847272188,9.4728753456
1520603863170032026,-0.1578769242,0.0476987403,0.0192986269,0.3969546442,1.1619408346,9.4783688362
1520603863175047026,-0.1460609944,0.0517849364,0.0184961764,0.3620801805,1.1271684785,9.4299321476
1520603863180065026,-0.1344908709,0.0573163018,0.0220340424,0.3332185554,1.1787337645,9.4220277797
1520603863185080026,-0.1214165612,0.0605186385,0.0250102316,0.3308134200,1.2494832368,9.4696301009
1520603863190096026,-0.1106005538,0.0660504370,0.0282789519,0.2947363886,1.2255032381,9.4700046394
1520603863195111026,-0.0995384343,0.0695506549,0.0285556390,0.2899261178,1.2386941574,9.4560928694
1520603863200128026,-0.0889786967,0.0715864690,0.0315276030,0.3464468003,1.3454132531,9.4507900847
1520603863205143026,-0.0769005302,0.0773926619,0.0412893143,0.3320159877,1.4377481896,9.4171383316
1520603863210160026,-0.0640704980,0.0791081119,0.0553472365,0.2442285447,1.4437507289,9.4284462496
1520603863215176026,-0.0537509881,0.0834486802,0.0680771042,0.1708719142,1.3562191913,9.4501642110
1520603863220192026,-0.0484698471,0.0840233188,0.0718593917,0.2454311124,1.2830658185,9.5145898887
1520603863225207026,-0.0439452882,0.0819722875,0.0767052553,0.2057463779,1.2351032924,9.5696436949
1520603863230223026,-0.0376640563,0.0784664797,0.0809956445,0.2718876021,1.2279032985,9.5027647275
1520603863235240026,-0.0321316558,0.0807975366,0.0818147989,0.4017649151,1.3262226980,9.5199989988
1520603863240256026,-0.0286133389,0.0813838694,0.0810010733,0.3909418056,1.3514054898,9.6002677211
1520603863245271026,-0.0243379186,0.0825452538,0.0831663985,0.3572699097,1.3538063931,9.5610802295
1520603863250288026,-0.0208221539,0.0810911664,0.0826076572,0.3476493680,1.3562054233,9.6088194334
1520603863255303026,-0.0213246692,0.0790418082,0.0861101257,0.2983440917,1.3658023867,9.6476407365
1520603863260319026,-0.0248424608,0.0778683358,0.0885426805,0.2863184146,1.3682016041,9.6709983275
1520603863265336026,-0.0293664984,0.0778687489,0.0877394438,0.2766978729,1.3670032130,9.6745795691
1520603863270350026,-0.0379067499,0.0781451310,0.0920862698,0.2742927375,1.3993801918,9.6931657103
1520603863275367026,-0.0469579966,0.0743514025,0.0928858095,0.2394182738,1.3658069760,9.7051593380
1520603863280383026,-0.0577691271,0.0699742157,0.0936841700,0.2754953052,1.3861895534,9.6524918296
1520603863285400026,-0.0648010995,0.0714203688,0.0966843585,0.3440416648,1.3897816361,9.6471725576
1520603863290415026,-0.0710769291,0.0754936487,0.0980798793,0.3536622065,1.3765903421,9.6773075227
1520603863295432026,-0.0776105693,0.0746125646,0.0997086202,0.3308134200,1.3789904025,9.6891490196
1520603863300447026,-0.0853998646,0.0754843945,0.0994592120,0.3416365294,1.3729938575,9.6878873768
1520603863305462026,-0.0909291877,0.0746066181,0.1000039024,0.3476493680,1.3969761976,9.6773461692
1520603863310479026,-0.0952048354,0.0705190051,0.1024156266,0.3524596388,1.3777895762,9.6947502177
1520603863315495026,-0.0992243464,0.0693424221,0.1059312985,0.3296108523,1.3514102665,9.7263762260
1520603863320512026,-0.1009859081,0.0652521515,0.1096910849,0.3813212639,1.3598002220,9.7270268671
1520603863325527026,-0.1042564977,0.0591164994,0.1153319313,0.4029674828,1.3861796255,9.6628725332
1520603863330543026,-0.1027531623,0.0506436291,0.1239221302,0.3729032900,1.3993725116,9.6387472738
1520603863335559026,-0.0964710523,0.0471349075,0.1292947030,0.3717007222,1.3945760436,9.5899536102
1520603863340575026,-0.0884218018,0.0485760415,0.1363250765,0.3428390971,1.3969765723,9.5658271698
1520603863345591026,-0.0816308921,0.0491447149,0.1425394768,0.3199903106,1.4041731944,9.5613939740
1520603863350608026,-0.0743388783,0.0494258429,0.1473979910,0.3139774720,1.3897839776,9.5428722281
1520603863355622026,-0.0670458491,0.0517524900,0.1501076997,0.3091672012,1.3166367864,9.5755304087
1520603863360639026,-0.0637779098,0.0520429692,0.1509154931,0.2863184146,1.2578806852,9.5502429354
1520603863365655026,-0.0625231288,0.0517564475,0.1492876610,0.2189746227,1.2099203132,9.5416480405
1520603863370671026,-0.0632785190,0.0514684098,0.1479341086,0.1768847527,1.1151914979,9.5572579667
1520603863375686026,-0.0625284880,0.0508961341,0.1441406197,0.1816950236,1.0780177701,9.5200587895
1520603863380703026,-0.0642894185,0.0529504337,0.1384779846,0.0854896066,1.0624364374,9.5407668426
1520603863385719026,-0.0648021661,0.0503496290,0.1303425334,0.0830844711,1.0456486588,9.5547523509
1520603863390735026,-0.0665757202,0.0442502608,0.1227238305,0.0385894657,1.0168727540,9.5784563812
1520603863395751026,-0.0673441693,0.0372734907,0.1164493211,0.0458048720,1.0036816474,9.5993176048
1520603863400766026,-0.0673617523,0.0300143726,0.1069246376,0.0854896066,1.0228648034,9.5861290450
1520603863405782026,-0.0656078393,0.0309103399,0.0990822088,0.0927050128,1.0252625223,9.5407328618
1520603863410799026,-0.0633491803,0.0306285826,0.0958292344,-0.0010952688,1.0528500575,9.4521338769
1520603863415815026,-0.0575737843,0.0312310985,0.0893298445,-0.1297700141,1.0084918835,9.3929980979
1520603863420831026,-0.0482806399,0.0332999281,0.0798590309,-0.1574290715,1.0024983355,9.3491116906
1520603863425846026,-0.0352137045,0.0374048272,0.0722905994,-0.0696416284,1.1080158556,9.3132900010
1520603863430863026,-0.0211367870,0.0417869361,0.0701334421,-0.0732493316,1.1919559662,9.3109189745
1520603863435879026,-0.0063078313,0.0409069365,0.0744279705,-0.0431851387,1.2734951735,9.2431424837
1520603863440894026,0.0115351226,0.0373991018,0.0811318035,0.0614382523,1.3418380292,9.2827325299
1520603863445911026,0.0313887258,0.0321350063,0.0910651150,0.1684667787,1.4149772593,9.3211323446
1520603863450926026,0.0497352339,0.0251118149,0.1047755308,0.2682798989,1.4773247876,9.3421807544
1520603863455942026,0.0700867656,0.0143021408,0.1181827669,0.3127749043,1.5588628709,9.3312088567
1520603863460959026,0.0911933777,0.0029034370,0.1340190696,0.3464468003,1.6332069547,9.3738079423
1520603863465974026,0.1097818971,-0.0125770915,0.1503700082,0.4173982953,1.6583833777,9.4788478877
1520603863470990026,0.1313884645,-0.0268938142,0.1678064221,0.4498676236,1.6883593594,9.4843133375
1520603863476006026,0.1487161734,-0.0473363847,0.1870979067,0.4005623473,1.6439950038,9.5696730190
1520603863481023026,0.1677984500,-0.0683486518,0.2017823979,0.1913155653,1.5792577178,9.6043128739
1520603863486039026,0.1833627743,-0.0849725901,0.2094725762,-0.1093263629,1.4197954565,9.7154740478
1520603863491055026,0.1933875825,-0.1047820713,0.2090321915,-0.3570553118,1.2207574401,9.8319695073
1520603863496070026,0.2001393195,-0.1228161164,0.1980599229,-0.6625075109,1.0421093067,9.9954926889
1520603863501086026,0.2005934178,-0.1481197538,0.1805506437,-1.1242935127,0.8107111704,10.1629132666
1520603863506101026,0.2007806651,-0.1765915694,0.1492195366,-1.3058812373,0.6272568283,10.3368569442
1520603863511119026,0.1906585523,-0.2068033456,0.1132949464,-1.3431608364,0.4413929661,10.4268861330
1520603863516134026,0.1893301423,-0.2370058484,0.0751896537,-1.3287300239,0.3022915531,10.3583148224
1520603863521151026,0.1872523325,-0.2604915053,0.0314554283,-1.2938555602,0.2075567435,10.1930433121
1520603863526166026,0.1856838556,-0.2775599499,-0.0146657357,-1.1808141952,0.1679763055,10.0594972142
1520603863531183026,0.1891527441,-0.2885175483,-0.0569619068,-1.0220752571,0.2375140869,9.9126163308
1520603863536197026,0.1926340799,-0.2916135919,-0.0970336875,-0.9126415952,0.3106531297,9.7627254148
1520603863541214026,0.1978871273,-0.2880187571,-0.1327288699,-0.7863719853,0.4437478824,9.6102878732
1520603863546231026,0.2003823916,-0.2823976970,-0.1638040765,-0.6059868284,0.5192796801,9.4655147400
1520603863551246026,0.2054073058,-0.2692207791,-0.1869803192,-0.4183862652,0.7003352730,9.4030806953
1520603863556261026,0.2061722776,-0.2490610474,-0.2068487228,-0.2608498948,0.8130422034,9.3491409371
1520603863561278026,0.2046880464,-0.2227969670,-0.2215258690,-0.1369854203,0.9497345647,9.3478020116
1520603863566294026,0.2014465660,-0.1971250860,-0.2329576437,-0.0323620293,1.0384628076,9.3780750274
1520603863571311026,0.1964488047,-0.1711705224,-0.2414079233,-0.0119183782,1.0708380068,9.3778444693
1520603863576325026,0.1874351430,-0.1425994439,-0.2482074522,0.0001072989,1.0912224574,9.4137340025
1520603863581343026,0.1756522623,-0.1192816542,-0.2523364037,-0.0215389199,1.1331940581,9.4499302292
1520603863586358026,0.1616044303,-0.1006371011,-0.2527090815,-0.0251466230,1.1751642539,9.5475445097
1520603863591375026,0.1462945608,-0.0860724237,-0.2531105489,-0.0696416284,1.2111419320,9.7222641097
1520603863596390026,0.1272054352,-0.0811358389,-0.2495201889,-0.0876801441,1.2687020772,9.8490572483
1520603863601407026,0.1033334852,-0.0849550440,-0.2413883734,-0.1502136652,1.2998845986,9.9507420324
1520603863606421026,0.0832239805,-0.0931398980,-0.2346496345,-0.2223677280,1.3394618521,9.9746486267
1520603863611438026,0.0646227940,-0.1019113009,-0.2262948668,-0.2692678688,1.4425915813,9.9424645300
1520603863616454026,0.0497879224,-0.1130123032,-0.2179648846,-0.2909140876,1.4533855310,9.9566104244
1520603863621469026,0.0347126624,-0.1162467501,-0.2093038664,-0.2680653011,1.4725699982,9.9273157201
1520603863626485026,0.0234155058,-0.1139470563,-0.1992548811,-0.2596473271,1.5301280829,9.8737190345
1520603863631501026,0.0133726480,-0.1116395860,-0.1919136883,-0.2392036759,1.5133385248,9.7933484865
1520603863636518026,0.0058599342,-0.0976801205,-0.1828649639,-0.2211651602,1.5157354007,9.7187933589
1520603863641533026,0.0028768955,-0.0773004106,-0.1767517375,-0.1562265037,1.5696916621,9.6483800283
1520603863646549026,-0.0021203131,-0.0580797421,-0.1733491287,-0.1057186598,1.6008653794,9.5653457924
1520603863651566026,-0.0046004954,-0.0394568835,-0.1640036235,-0.0768570347,1.6020622720,9.6045765961
1520603863656581026,-0.0065773273,-0.0184947391,-0.1576172720,-0.0311594616,1.5672836407,9.5890578434
1520603863661598026,-0.0095614637,0.0018886130,-0.1528567751,-0.0299568939,1.5720801087,9.5878793170
1520603863666614026,-0.0095250823,0.0275253524,-0.1507673223,-0.0852750087,1.4989368512,9.6059212386
1520603863671629026,-0.0122634907,0.0499761750,-0.1562724746,-0.0888827118,1.4149973026,9.6130110713
1520603863676646026,-0.0147588253,0.0671858168,-0.1631708387,-0.0564133836,1.3034747144,9.6453438140
1520603863681661026,-0.0165062460,0.0803178274,-0.1706428178,-0.0900852795,1.2015504009,9.6597166769
1520603863686678026,-0.0192716112,0.0876377791,-0.1841094016,0.0421971689,1.1355873750,9.8711657780
1520603863691693026,-0.0222923250,0.0911659914,-0.1962516892,0.0049175698,1.2183309676,9.7447742593
1520603863696709026,-0.0243012062,0.0973068602,-0.2045881934,-0.1417956912,1.2111475516,9.6741563670
1520603863701726026,-0.0288220643,0.1040287850,-0.2126450383,-0.1225546078,1.2123451935,9.6658329091
1520603863706740026,-0.0303270345,0.1087020016,-0.2169354029,-0.1538213683,1.2195424712,9.7102916948
1520603863711757026,-0.0353505844,0.1130824553,-0.2212214565,-0.2861038167,1.1703880164,9.7685722477
1520603863716773026,-0.0378625102,0.1162976270,-0.2252505237,-0.3594604472,1.1703937297,9.7472055210
1520603863721788026,-0.0413768636,0.1200886181,-0.2268383649,-0.4628812706,1.1907871716,9.7249493980
1520603863726805026,-0.0483989801,0.1291122258,-0.2243214679,-0.6601023755,1.1943999531,9.7350005269
1520603863731822026,-0.0526640270,0.1320141993,-0.2205036602,-0.6865588652,1.1848088903,9.7561859840
1520603863736837026,-0.0549149431,0.1378315342,-0.2169379014,-0.8392849647,1.1716302404,9.6856324638
1520603863741853026,-0.0589324234,0.1407459894,-0.2177198406,-0.9451109234,1.2100109761,9.7273001283
1520603863746869026,-0.0616982904,0.1410428468,-0.2201473967,-0.9908084965,1.1860317267,9.7742540654
1520603863751885026,-0.0647209135,0.1366745396,-0.2215278717,-1.0425189082,1.1056933457,9.7922678879
1520603863756900026,-0.0669947014,0.1279328461,-0.2218609097,-1.0581522885,1.0853091761,9.8551957059
1520603863761916026,-0.0695250179,0.1174522166,-0.2257239161,-1.0437214759,1.1020960181,9.8155259800
1520603863766933026,-0.0703034130,0.1020201962,-0.2301690737,-0.9547314652,1.1320675978,9.7902255493
1520603863771948026,-0.0710796088,0.0880443700,-0.2343325701,-0.9090338921,1.1260683366,9.7874623160
1520603863776965026,-0.0670822285,0.0726105781,-0.2374338661,-0.8104233396,1.1380520607,9.7551129212
1520603863781981026,-0.0620763558,0.0586297320,-0.2389026381,-0.7406744122,1.2303804411,9.6613724724
1520603863786997026,-0.0568238025,0.0417373245,-0.2412057454,-0.6625075109,1.2771408297,9.6303502967
1520603863792014026,-0.0477967997,0.0268788011,-0.2407948330,-0.5638969584,1.3083108006,9.6281979353
1520603863797030026,-0.0365048573,0.0123030788,-0.2368688014,-0.5097814114,1.3382850965,9.5951019436
1520603863802044026,-0.0247112425,-0.0034401700,-0.2321409578,-0.5025660051,1.3646656238,9.5810602603
1520603863807060026,-0.0134174497,-0.0156804456,-0.2298204169,-0.5290224948,1.3358883142,9.5708865401
1520603863812076026,0.0033951123,-0.0328618940,-0.2313355789,-0.4917428957,1.2543438619,9.5031988491
1520603863817094026,0.0192064427,-0.0456664125,-0.2352504407,-0.5374404688,1.2039835232,9.5304220645
1520603863822108026,0.0385338082,-0.0572916311,-0.2437622246,-0.5434533073,1.1464252512,9.5688874685
1520603863827125026,0.0593692765,-0.0680391917,-0.2533523232,-0.5831380418,1.1344369377,9.6099604672
1520603863832141026,0.0792061906,-0.0747114049,-0.2615567021,-0.6264304795,1.1140549223,9.6289960312
1520603863837157026,0.1025626566,-0.0787524947,-0.2724530664,-0.6745331880,1.1404397580,9.6503570992
1520603863842173026,0.1226555387,-0.0798788338,-0.2841327702,-0.6552921046,1.1248494339,9.6757521867
1520603863847189026,0.1372183961,-0.0815879228,-0.2966182898,-0.6913691360,1.1536316139,9.7225610324
1520603863852204026,0.1517761922,-0.0876706933,-0.3080549722,-0.7214333288,1.1608287979,9.8169803031
1520603863857219026,0.1633191904,-0.0946353548,-0.3170578101,-0.6853562974,1.1740165328,9.8654263347
1520603863862236026,0.1698481261,-0.0960802480,-0.3205981570,-0.6805460266,1.1967998262,9.8723301608
1520603863867253026,0.1728541267,-0.1010231339,-0.3241586467,-0.7382692768,1.2159905687,9.8937918852
1520603863872268026,0.1738514067,-0.1053869521,-0.3266287730,-0.7238384643,1.2459679553,9.9505672448
1520603863877284026,0.1718316463,-0.1117960140,-0.3274855848,-0.7130153548,1.2423696911,10.0027618853
1520603863882301026,0.1645351357,-0.1187942832,-0.3267137661,-0.7202307611,1.2303788488,9.9737902102
1520603863887317026,0.1579927765,-0.1290127838,-0.3202863378,-0.7514975217,1.2519658116,9.9763977814
1520603863892333026,0.1501915043,-0.1406872425,-0.3144087831,-0.7310538705,1.2843410108,10.0482201485
1520603863897349026,0.1378651869,-0.1514798502,-0.3120332548,-0.7442821154,1.3299093772,10.0854930757
1520603863902364026,0.1252842658,-0.1666520655,-0.3064440552,-0.7118127871,1.3359025505,10.0816847607
1520603863907379026,0.1086837004,-0.1835858181,-0.2965319923,-0.6769383235,1.3730731875,10.0940926480
1520603863912395026,0.0908335094,-0.1935180931,-0.2898107924,-0.6829511620,1.4066495876,10.0662269769
1520603863917413026,0.0729870545,-0.2019992730,-0.2809141100,-0.7274461674,1.4186444573,10.0585133629
1520603863922428026,0.0576536389,-0.2078453527,-0.2763308213,-0.7466872508,1.3766760410,10.0134179565
1520603863927444026,0.0403138354,-0.2110712161,-0.2711826994,-0.7539026571,1.3766766030,9.9670024286
1520603863932461026,0.0249850812,-0.2142984771,-0.2652266735,-0.7671309019,1.3263137355,9.9660181526
1520603863937476026,0.0096604198,-0.2140269386,-0.2600556082,-0.8428926678,1.3155273722,9.8807674425
1520603863942492026,-0.0049114858,-0.2134586211,-0.2567775414,-0.9138441629,1.3119354769,9.8710022533
1520603863947508026,-0.0207401052,-0.2128900675,-0.2537676868,-0.9956187674,1.2783659139,9.8102373091
1520603863952524026,-0.0315383923,-0.2091143150,-0.2507427127,-1.0485317468,1.2807683158,9.7921556896
1520603863957539026,-0.0435875871,-0.2015525128,-0.2471454131,-1.0365060696,1.2280052006,9.7316586044
1520603863962556026,-0.0533793617,-0.1977807370,-0.2424990306,-1.0509368822,1.2208114819,9.7143739218
1520603863967572026,-0.0614092689,-0.1905051018,-0.2402641511,-1.0749882364,1.2388004615,9.6495104214
1520603863972587026,-0.0681772286,-0.1800273868,-0.2366544219,-1.0341009342,1.2208101707,9.6142656709
1520603863977604026,-0.0704226483,-0.1713013057,-0.2311726109,-1.0028341737,1.1944266462,9.6139870649
1520603863982620026,-0.0703996983,-0.1602549172,-0.2213484814,-0.9643520069,1.1932245087,9.5915329373
1520603863987636026,-0.0688720837,-0.1532953340,-0.2085822706,-0.9667571423,1.2052161002,9.5322753124
1520603863992651026,-0.0653343883,-0.1472120306,-0.1947442792,-0.9162492983,1.2363898175,9.5608068960
1520603863997668026,-0.0595357051,-0.1408328143,-0.1822609948,-0.9294775432,1.2375899882,9.5655830581
1520603864002684026,-0.0509699670,-0.1338763019,-0.1673434851,-0.8825774024,1.2855519524,9.6220248411
1520603864007699026,-0.0439061766,-0.1248908865,-0.1486199708,-0.8380823970,1.2927433295,9.5936932831
1520603864012715026,-0.0396023217,-0.1141648029,-0.1274430711,-0.8380823970,1.2783536445,9.5948694591
1520603864017732026,-0.0363062573,-0.1051866918,-0.1065481889,-0.8501080741,1.2855494236,9.5322237201
1520603864022747026,-0.0327586746,-0.0962092107,-0.0853832275,-0.8104233396,1.2891437541,9.4714024596
1520603864027764026,-0.0269473364,-0.0863596036,-0.0631336138,-0.7983976625,1.2567660261,9.4620198296
1520603864032780026,-0.0213861915,-0.0735867802,-0.0443783991,-0.8477029387,1.2124016704,9.4462729871
1520603864037796026,-0.0160746713,-0.0587707213,-0.0269598856,-0.9042236212,1.2004146682,9.4456726742
1520603864042811026,-0.0152882433,-0.0442434486,-0.0111584695,-0.9138441629,1.1812291707,9.4271907208
1520603864047827026,-0.0167626226,-0.0282564972,0.0033055330,-0.9427057880,1.1464563463,9.4588834397
1520603864052843026,-0.0194927003,-0.0102237904,0.0153525176,-0.9739725486,1.1740390112,9.5044844906
1520603864057859026,-0.0237379530,0.0057839309,0.0217052772,-0.9823905225,1.1548534200,9.5231794387
1520603864062875026,-0.0272291328,0.0220840606,0.0277883139,-0.9751751163,1.1620477006,9.5079943209
1520603864067892026,-0.0317263430,0.0380938688,0.0333299025,-0.9427057880,1.1596468910,9.5506799494
1520603864072907026,-0.0359729992,0.0546916435,0.0369816493,-0.9619468714,1.1536526874,9.5717916682
1520603864077924026,-0.0457482728,0.0715800935,0.0401047953,-0.9799853871,1.1512558114,9.5777803025
1520603864082940026,-0.0545187431,0.0896410314,0.0408000537,-0.9715674131,1.1728396834,9.5869744706
1520603864087955026,-0.0607815020,0.1047934792,0.0398451386,-0.9944161997,1.1512569354,9.6151093697
1520603864092971026,-0.0710683431,0.1170283211,0.0396870980,-1.0124547154,1.1752411487,9.6164237027
1520603864097988026,-0.0778441632,0.1272394183,0.0340960437,-1.0244803925,1.1968266130,9.6560325996
1520603864103003026,-0.0863880881,0.1330892564,0.0246872676,-1.0100495799,1.1836349444,9.6861207444
1520603864108019026,-0.0919122950,0.1406827558,0.0174505965,-0.9415032203,1.1836296058,9.6947507079
1520603864113035026,-0.0974403791,0.1433132485,0.0136932297,-0.8765645638,1.2016116545,9.7278032694
1520603864118051026,-0.1009600094,0.1441947649,0.0104598823,-0.8693491575,1.2255939010,9.7556011072
1520603864123066026,-0.1009622440,0.1459583691,0.0047917570,-0.8549183450,1.2771558153,9.8053825549
1520603864128083026,-0.1012173613,0.1465563368,-0.0008847939,-0.7863719853,1.3059298468,9.8476866289
1520603864133099026,-0.0994631504,0.1439389358,-0.0025313441,-0.7767514436,1.3682843996,9.8614779103
1520603864138115026,-0.0956976276,0.1410265674,-0.0025605758,-0.7130153548,1.4366304397,9.8933309206
1520603864143131026,-0.0879150204,0.1349083591,-0.0018100913,-0.6552921046,1.4534139100,9.9311034577
1520603864148146026,-0.0811416114,0.1261687532,-0.0016188395,-0.6156073701,1.4773936276,9.9283695161
1520603864153164026,-0.0746192385,0.1171354789,-0.0006177064,-0.6288356149,1.4989791855,9.9517201027
1520603864158178026,-0.0640824197,0.1034416276,0.0003403898,-0.5783277710,1.5205597794,9.9767746092
1520603864163194026,-0.0490172548,0.0917819558,0.0040111055,-0.5650995262,1.5121647662,9.9231954171
1520603864168212026,-0.0359659972,0.0786696727,0.0057806184,-0.5121865468,1.5121606452,9.9354639781
1520603864173226026,-0.0209003972,0.0655450655,0.0124162235,-0.4737043800,1.4917722609,9.9746221895
1520603864178243026,-0.0025658424,0.0547564567,0.0177108165,-0.4544632966,1.4917707623,10.0127856591
1520603864183259026,0.0112502183,0.0480476443,0.0222332960,-0.4484504580,1.4749823281,10.0371485276
1520603864188275026,0.0265784236,0.0430811739,0.0292012267,-0.4400324840,1.4593928469,10.0986754232
1520603864193291026,0.0431616294,0.0378274534,0.0348118712,-0.4087657235,1.4258144799,10.1553488870
1520603864198306026,0.0552273878,0.0340157716,0.0453118584,-0.3979426141,1.4150213732,10.1994155358
1520603864203322026,0.0657831578,0.0302107834,0.0531091868,-0.4280068069,1.4270151189,10.2531550907
1520603864208339026,0.0695572859,0.0269771647,0.0641701138,-0.4773120831,1.3862481846,10.2559990435
1520603864213355026,0.0718201946,0.0231689275,0.0719828442,-0.4592735674,1.3862467797,10.3348492565
1520603864218370026,0.0635297403,0.0202307087,0.0798218461,-0.5037685728,1.3814536834,10.2492883683
1520603864223386026,0.0554863234,0.0164286328,0.0838660696,-0.5145916822,1.3526751562,10.3063668317
1520603864228403026,0.0446773021,0.0126298444,0.0862921517,-0.4857300571,1.3238935382,10.3154111262
1520603864233419026,0.0290967237,0.0099896246,0.0906298151,-0.4243991037,1.2747240042,10.3090513914
1520603864238434026,0.0099995926,0.0096842015,0.0930979760,-0.4195888329,1.2747236295,10.3287610184
1520603864243451026,-0.0121172173,0.0058787974,0.0963566983,-0.3847143692,1.2843140368,10.2819264589
1520603864248467026,-0.0357481047,0.0000447658,0.0952739250,-0.3366116607,1.2867085712,10.2768073421
1520603864253482026,-0.0621445964,-0.0057859783,0.0925730103,-0.2776858428,1.2519289096,10.2332683789
1520603864258499026,-0.0887925163,-0.0107382966,0.0882559562,-0.2668627333,1.2759108751,10.1262224028
1520603864263514026,-0.1111634242,-0.0104367355,0.0812655243,-0.2584447593,1.3202784152,10.0505578449
1520603864268531026,-0.1317772201,-0.0115914077,0.0742607100,-0.2259754311,1.3190767459,9.9642443251
1520603864273545026,-0.1538981425,-0.0098218990,0.0632227384,-0.2704704365,1.3394655985,9.8809831687
1520603864278562026,-0.1717451775,-0.0054224283,0.0500324732,-0.2428113791,1.3478574273,9.8318957209
1520603864283577026,-0.1835517139,0.0056805210,0.0371526834,-0.2728755719,1.3382666454,9.7915226637
1520603864288594026,-0.1936020126,0.0167936292,0.0207525299,-0.2897115199,1.3706447481,9.7614392195
1520603864293610026,-0.2008821710,0.0328642710,0.0033028514,-0.2885089522,1.3694455140,9.7358615168
1520603864298626026,-0.2016304965,0.0471877086,-0.0136312087,-0.3209782804,1.3286772685,9.7083258559
1520603864303641026,-0.2023808449,0.0603470650,-0.0311152530,-0.2933192230,1.3154845696,9.6499623046
1520603864308659026,-0.2011182505,0.0755476291,-0.0488580153,-0.2584447593,1.3070878705,9.6461446115
1520603864313674026,-0.1960889062,0.0869536585,-0.0636606737,-0.2307857020,1.2627175207,9.6133786301
1520603864318690026,-0.1875422173,0.0966076601,-0.0765893835,-0.1730624517,1.2387302165,9.5651922720
1520603864323705026,-0.1742244143,0.1036410716,-0.0895469687,-0.1009083890,1.1787675758,9.5482784202
1520603864328722026,-0.1581431200,0.1086293185,-0.1000903365,-0.0985032535,1.1128146651,9.5204278689
1520603864333738026,-0.1445734615,0.1103924119,-0.1036192977,-0.0431851387,1.0732387228,9.4478750993
1520603864338754026,-0.1264853011,0.1110026658,-0.1112237407,0.0253612209,0.9797004312,9.4356776800
1520603864343770026,-0.1058879434,0.1060652149,-0.1142758093,0.0902998774,0.8789675780,9.4002795128
1520603864348785026,-0.0855410103,0.0996612734,-0.1138214300,0.1648590756,0.8417884179,9.3995900489
1520603864353801026,-0.0626861973,0.0877139976,-0.1104379517,0.2057463779,0.7974170378,9.3899381909
1520603864358818026,-0.0370652976,0.0754691360,-0.1043563714,0.2454311124,0.6942878706,9.3582746004
1520603864363834026,-0.0132040191,0.0623472463,-0.0974665557,0.2478362478,0.6523177685,9.3559678293
1520603864368850026,0.0119143692,0.0495165051,-0.0903063046,0.2598619249,0.6427237085,9.3186715269
1520603864373865026,0.0362802683,0.0375588936,-0.0828674381,0.2983440917,0.5755688477,9.3509024788
1520603864378881026,0.0583915112,0.0285040432,-0.0716144978,0.2514439509,0.5599836749,9.3188341467
1520603864383897026,0.0827626912,0.0209193849,-0.0649539228,0.2634696281,0.5611818787,9.2571222972
1520603864388914026,0.1028614813,0.0124559855,-0.0572098991,0.2538490864,0.6307327726,9.2606345478
1520603864393929026,0.1209538875,0.0080762809,-0.0513248398,0.2827107115,0.6535141928,9.2963578716
1520603864398946026,0.1377914305,0.0060322593,-0.0473134834,0.3416365294,0.6355224971,9.3480983419
1520603864403960026,0.1518726957,0.0106926409,-0.0445985916,0.2995466595,0.6798939708,9.3786804961
1520603864408978026,0.1641921915,0.0156539160,-0.0456658521,0.2706850343,0.7530437845,9.4137544064
1520603864413993026,0.1712254851,0.0156668707,-0.0494665629,0.3320159877,0.7878140801,9.4398528486
1520603864419010026,0.1765036505,0.0200564601,-0.0556655734,0.4186008630,0.8297772514,9.5261299543
1520603864424025026,0.1812849342,0.0273538704,-0.0596770525,0.4198034308,0.8621539492,9.5481674122
1520603864429042026,0.1858078819,0.0302840565,-0.0650741406,0.4294239725,0.8801403063,9.5771098305
1520603864434058026,0.1850510098,0.0340987120,-0.0750540384,0.4847420873,0.9005213851,9.5416872005
1520603864439074026,0.1810284840,0.0384933997,-0.0844823310,0.5063883061,0.9508835970,9.5600217005
1520603864444089026,0.1807680507,0.0379382126,-0.0947670544,0.5653141240,0.9664678332,9.5942972700
1520603864449106026,0.1772387567,0.0373883014,-0.1074806236,0.5568961500,0.9580745058,9.5548744963
1520603864454120026,0.1732102052,0.0379979040,-0.1180199998,0.6001885877,0.9496771511,9.5870013303
1520603864459138026,0.1706838131,0.0336509181,-0.1272472393,0.6314553482,0.9760558053,9.5889955613
1520603864464154026,0.1653955056,0.0295876780,-0.1340322087,0.6446835931,0.9868470388,9.5911805696
1520603864469169026,0.1628686744,0.0252421490,-0.1438005400,0.6170245357,1.0000397377,9.5856262033
1520603864474184026,0.1616031751,0.0238080439,-0.1524667905,0.6170245357,0.9880483334,9.6135293516
1520603864479200026,0.1608364863,0.0182889249,-0.1590007304,0.6410758899,0.9352842816,9.6830753387
1520603864484217026,0.1595684309,0.0133509211,-0.1649881990,0.6446835931,0.9065046305,9.6598254086
1520603864489233026,0.1605643466,0.0078208364,-0.1671966717,0.6278476451,0.8645360269,9.6716516458
1520603864494250026,0.1625638738,0.0011256073,-0.1694159036,0.5797449366,0.8513492286,9.6953755899
1520603864499265026,0.1605483827,-0.0014925420,-0.1713259988,0.5268319572,0.8081842944,9.7180134437
1520603864504280026,0.1595388358,-0.0032346871,-0.1737723835,0.5196165509,0.7937951713,9.7378541533
1520603864509297026,0.1597846382,-0.0061433349,-0.1756889024,0.4787292487,0.7842052323,9.7522072074
1520603864514313026,0.1557613047,-0.0081853304,-0.1754264505,0.4462599204,0.7494326889,9.7595300185
1520603864519329026,0.1504844723,-0.0067253763,-0.1772993551,0.3765109931,0.7182604702,9.7846443376
1520603864524344026,0.1416857633,-0.0070107371,-0.1808023396,0.3163826074,0.6966806255,9.8282499649
1520603864529361026,0.1336447340,-0.0046740703,-0.1840161705,0.3356236908,0.6583066334,9.8490186940
1520603864534377026,0.1205781671,-0.0023408295,-0.1866795751,0.4065751859,0.6079372097,9.9506458759
1520603864539393026,0.1039964511,0.0017371548,-0.1885114695,0.4474624882,0.5779555147,9.9061156672
1520603864544409026,0.0861599541,0.0061016608,-0.1887155318,0.4294239725,0.5839526217,9.8516646305
1520603864549424026,0.0685808639,0.0122021891,-0.1843074420,0.4546778944,0.6043360420,9.8769661125
1520603864554439026,0.0527531267,0.0142313075,-0.1826392015,0.4787292487,0.6187238539,9.8232593574
1520603864559456026,0.0303978612,0.0185787443,-0.1771533989,0.5460730406,0.5683547112,9.7901129558
1520603864564473026,0.0113079358,0.0200056029,-0.1687198897,0.6074039940,0.5719473558,9.7720803306
1520603864569488026,-0.0102983652,0.0191011292,-0.1605700439,0.5989860200,0.5779437135,9.7221842293
1520603864574504026,-0.0324030415,0.0208167341,-0.1515876192,0.6314553482,0.5935300102,9.6590972178
1520603864579521026,-0.0522526264,0.0181646424,-0.1434543789,0.6699375151,0.5695442046,9.6180710044
1520603864584537026,-0.0715906829,0.0219224788,-0.1350026184,0.6759503536,0.5467600683,9.6168725526
1520603864589553026,-0.0856609279,0.0169328343,-0.1236513467,0.6278476451,0.5755431848,9.5464219095
1520603864594568026,-0.1002354799,0.0131194574,-0.1163484376,0.6699375151,0.5395656940,9.6285595334
1520603864599585026,-0.1117844606,0.0160061923,-0.1079178147,0.6314553482,0.5443652528,9.5963893872
1520603864604599026,-0.1228305849,0.0171360758,-0.0962549131,0.6025937231,0.5131898497,9.5827549839
1520603864609617026,-0.1336318752,0.0144824296,-0.0862446536,0.6675323796,0.4892019836,9.5100933725
1520603864614632026,-0.1401676403,0.0071690330,-0.0765484437,0.4462599204,0.5599685020,9.4424494746
1520603864619649026,-0.1451980666,0.0016205598,-0.0727937053,0.3380288263,0.5707691952,9.4586002770
1520603864624663026,-0.1449448310,0.0033704223,-0.0733219253,0.3801186962,0.5491813895,9.4279959053
1520603864629680026,-0.1446954297,-0.0001355632,-0.0698319724,0.3945495088,0.5000155082,9.3988497887
1520603864634697026,-0.1429346286,-0.0013113385,-0.0657859433,0.3704981545,0.4904242580,9.3270403194
1520603864639713026,-0.1363991459,-0.0010217648,-0.0641725797,0.3488519357,0.4892268035,9.3109821644
1520603864644729026,-0.1313727302,-0.0010212525,-0.0636408224,0.2670773312,0.5192116829,9.3291810341
1520603864649744026,-0.1230828130,-0.0018863296,-0.0658272606,0.2382157061,0.5096208074,9.3306334541
1520603864654759026,-0.1115291749,-0.0036177245,-0.0704613487,0.2129617841,0.5120210551,9.3506333688
1520603864659777026,-0.1009809516,-0.0053487848,-0.0753641157,0.2297977321,0.5036257609,9.3562884032
1520603864664793026,-0.0876598241,-0.0030095767,-0.0764532509,0.2213797581,0.4580590804,9.4307919865
1520603864669809026,-0.0791103831,0.0013667240,-0.0772474109,0.1780873205,0.4340796437,9.4114803081
1520603864674823026,-0.0657879306,0.0066285186,-0.0815608660,0.1624539402,0.4520679676,9.3976692063
1520603864679840026,-0.0534732215,0.0113129777,-0.0880412676,0.1540359662,0.4676574488,9.4081952359
1520603864684856026,-0.0419132911,0.0145365766,-0.0931786550,0.1299846119,0.4280876880,9.4177650768
1520603864689872026,-0.0293465423,0.0171697876,-0.0953463505,0.1444154245,0.3897140705,9.4385806262
1520603864694888026,-0.0197883384,0.0256324213,-0.0985461673,0.1841001590,0.3561350479,9.4207949415
1520603864699904026,-0.0099806822,0.0332231853,-0.1025647577,0.1708719142,0.3237592867,9.4558195879
1520603864704919026,-0.0039455428,0.0390663505,-0.1074013235,0.1588462370,0.3045739765,9.4594417798
1520603864709937026,-0.0001720067,0.0443229469,-0.1111559514,0.1323897474,0.3261605647,9.4991911374
1520603864714952026,0.0058643206,0.0510402657,-0.1159858479,0.1083383931,0.3261624379,9.5226681176
1520603864719967026,0.0091372820,0.0574607464,-0.1191895582,0.0878947420,0.3021812216,9.5519440892
1520603864724983026,0.0106555464,0.0653294478,-0.1194028811,0.0890973097,0.3165708130,9.5786476630
1520603864729999026,0.0078939056,0.0697100592,-0.1234225893,0.0325766272,0.3585451299,9.6082104726
1520603864735016026,0.0048809150,0.0714564564,-0.1231331042,0.0133355438,0.3657414710,9.6572007836
1520603864740031026,-0.0013977726,0.0740757274,-0.1228308825,0.0818819034,0.3933163621,9.6611552764
1520603864745048026,-0.0069229635,0.0749404306,-0.1201084863,0.0494125752,0.4196999802,9.6579591556
1520603864750063026,-0.0101786438,0.0778289577,-0.1111521735,0.0157406792,0.4724647813,9.6942619088
1520603864755079026,-0.0179660103,0.0775235946,-0.1070817397,-0.0359697325,0.5072438810,9.6714884363
1520603864760097026,-0.0250041888,0.0734290712,-0.1025005144,-0.0251466230,0.5180353019,9.7039125975
1520603864765112026,-0.0327937586,0.0702040353,-0.0962879444,-0.0395774356,0.5576080598,9.7144737655
1520603864770128026,-0.0438499976,0.0655135126,-0.0873749633,-0.0997058212,0.5636084449,9.7464310584
1520603864775143026,-0.0518931558,0.0599543884,-0.0800975276,-0.0804647378,0.5660052272,9.7392685751
1520603864780159026,-0.0559114907,0.0552615234,-0.0693037936,-0.1093263629,0.5636091942,9.7337411154
1520603864785175026,-0.0639476588,0.0528988878,-0.0587553532,-0.1357828526,0.5648103951,9.7990775187
1520603864790192026,-0.0704764299,0.0502454584,-0.0482119362,-0.1730624517,0.5564193156,9.7913135532
1520603864795208026,-0.0785158519,0.0461374294,-0.0387590179,-0.1886958320,0.6187758352,9.7995399209
1520603864800224026,-0.0830351537,0.0437805427,-0.0298403870,-0.2331908374,0.6271732836,9.8266941336
1520603864805238026,-0.0878009164,0.0443344892,-0.0198168749,-0.2716730042,0.6259771403,9.8456641680
1520603864810254026,-0.0923161292,0.0440129236,-0.0092594071,-0.2933192230,0.6571564772,9.8237637211
1520603864815271026,-0.0955759886,0.0439883339,-0.0005958710,-0.3606630150,0.6427720370,9.8348925319
1520603864820286026,-0.0980834413,0.0451397757,0.0042875147,-0.3510424732,0.6895377643,9.8428882949
1520603864825302026,-0.0995882038,0.0454218283,0.0075390889,-0.3522450410,0.7327069132,9.8486686235
1520603864830320026,-0.1020923085,0.0506599378,0.0097481388,-0.3726886921,0.7315093650,9.7837887174
1520603864835334026,-0.1045931631,0.0561799622,0.0154765085,-0.4376273486,0.7674886353,9.7994935816
1520603864840352026,-0.1065870645,0.0649054133,0.0212283987,-0.4243991037,0.7638901838,9.8028547659
1520603864845367026,-0.1068205529,0.0750906616,0.0261764995,-0.4664889737,0.7686900236,9.7683954469
1520603864850383026,-0.1075567291,0.0843979172,0.0324715940,-0.5242122239,0.8010713107,9.7607907098
1520603864855398026,-0.1105532697,0.0966268731,0.0355465691,-0.5410481719,0.8238562900,9.7539594994
1520603864860415026,-0.1120436874,0.1082765645,0.0375321141,-0.5999739898,0.8034754921,9.7894172445
1520603864865432026,-0.1165499929,0.1219749641,0.0357511789,-0.6432664275,0.7782969150,9.7759174552
1520603864870447026,-0.1203007319,0.1362535144,0.0350554732,-0.6877614329,0.7926900655,9.8239844124
1520603864875462026,-0.1270765990,0.1452939744,0.0313493479,-0.7033948131,0.8046826873,9.8171520210
1520603864880478026,-0.1346037713,0.1546182394,0.0303523047,-0.6528869692,0.8154710174,9.8468656274
1520603864885496026,-0.1401298756,0.1587056548,0.0266060533,-0.6540895369,0.8454496216,9.8433616671
1520603864890512026,-0.1441480577,0.1619151367,0.0244736076,-0.6432664275,0.9221937658,9.8524786355
1520603864895527026,-0.1516938832,0.1578371703,0.0228332107,-0.5939611513,0.9581641384,9.9135572776
1520603864900543026,-0.1569716879,0.1569587638,0.0236479804,-0.5843406096,0.9797479168,9.8832268462
1520603864905558026,-0.1589846307,0.1549175561,0.0239066984,-0.5254147916,1.0349037869,9.8930588044
1520603864910574026,-0.1622557849,0.1511253635,0.0249660493,-0.5145916822,1.1284358970,9.9312130010
1520603864915590026,-0.1620088455,0.1464567537,0.0273649263,-0.5061737082,1.1728034370,9.9845464219
1520603864920607026,-0.1622659976,0.1415002045,0.0284097842,-0.5097814114,1.2543452668,10.1158242888
1520603864925621026,-0.1622747989,0.1342119492,0.0297069365,-0.5121865468,1.3334887221,10.2075798949
1520603864930639026,-0.1597728975,0.1260541670,0.0296400229,-0.5374404688,1.4042399739,10.2193781497
1520603864935654026,-0.1557704599,0.1135305782,0.0279136873,-0.5795303387,1.4941787838,10.2847801876
1520603864940670026,-0.1502530157,0.1056668188,0.0273023043,-0.6841537297,1.6296898000,10.3716650448
1520603864945687026,-0.1414676635,0.1027768156,0.0196884530,-0.7394718445,1.7100365168,10.4035030184
1520603864950703026,-0.1349450004,0.1036943212,0.0045324173,-0.8873876732,1.7376282667,10.3898079742
1520603864955718026,-0.1231490136,0.1046270060,-0.0155032457,-1.0016316060,1.8251744153,10.3443488346
1520603864960735026,-0.1116004014,0.1116932362,-0.0409026752,-1.0521394499,1.8503602979,10.3331944513
1520603864965750026,-0.0982905802,0.1222655110,-0.0695252454,-1.1242935127,1.8899375515,10.3106152874
1520603864970766026,-0.0857374195,0.1337247558,-0.1030095723,-1.1892321692,1.9463022090,10.2461123401
1520603864975781026,-0.0671561133,0.1463671987,-0.1421776721,-1.2553733934,1.9762858709,10.2595104682
1520603864980799026,-0.0448037370,0.1616401350,-0.1837676780,-1.2277143360,2.0002665252,10.3068657672
1520603864985815026,-0.0244593324,0.1783677495,-0.2248017429,-1.1711936535,1.9882707189,10.3179487625
1520603864990830026,-0.0031131275,0.1898384530,-0.2612784100,-1.0918241844,1.9438963417,10.3625431086
1520603864995847026,0.0217455410,0.1969390385,-0.2975244116,-0.9956187674,1.9390922872,10.4034485638
1520603865000862026,0.0473608660,0.2016891755,-0.3264848589,-0.9944161997,1.8947239979,10.4743709055
1520603865005878026,0.0719622845,0.2000284591,-0.3554923471,-0.9932136320,1.8599488319,10.5301760210
1520603865010894026,0.0953048212,0.1922285077,-0.3772394474,-0.9992264705,1.8551527386,10.5581306786
1520603865015910026,0.1181451485,0.1817927869,-0.3941357958,-1.0028341737,1.7760097516,10.5919451448
1520603865020925026,0.1409774663,0.1646515799,-0.4097305457,-0.9968213351,1.7604204578,10.6337390033
1520603865025941026,0.1617981506,0.1425378374,-0.4185957069,-1.0268855279,1.7136563228,10.6608065449
1520603865030958026,0.1801026280,0.1154579185,-0.4231652590,-1.0413163405,1.6920729191,10.7167509635
1520603865035974026,0.1974021257,0.0869133988,-0.4250386006,-1.0268855279,1.6596950037,10.7410470980
1520603865040991026,0.2081661367,0.0566158269,-0.4261015083,-1.0461266113,1.6309171321,10.7610188903
1520603865046006026,0.2171800179,0.0280440200,-0.4190314335,-1.0545445853,1.5529736602,10.7274746580
1520603865051022026,0.2206741262,0.0067583024,-0.4132482431,-1.0449240436,1.4954141706,10.7367342975
1520603865056037026,0.2196486388,-0.0119074551,-0.4071660981,-1.0316957988,1.4666337702,10.6773642643
1520603865061054026,0.2163705612,-0.0267992116,-0.3961810263,-0.9944161997,1.4258600923,10.6445011344
1520603865066070026,0.2065640771,-0.0393697360,-0.3824605761,-0.9859982257,1.3814912410,10.5665988196
1520603865071086026,0.1942526612,-0.0440651216,-0.3719219861,-0.9799853871,1.3599062451,10.5398320315
1520603865076101026,0.1784272840,-0.0461416101,-0.3605452165,-0.9727699808,1.3515117002,10.4514470460
1520603865081118026,0.1580785750,-0.0470492337,-0.3510449748,-1.0028341737,1.2747690546,10.3239786752
1520603865086133026,0.1349734941,-0.0435937282,-0.3390713398,-1.0316957988,1.2795678641,10.2905527445
1520603865091149026,0.1108636648,-0.0372131164,-0.3314023414,-1.0304932311,1.2759703492,10.2033837509
1520603865096166026,0.0864951507,-0.0343204762,-0.3270061041,-1.0328983665,1.2867628003,10.1824780458
1520603865101182026,0.0578580770,-0.0285142076,-0.3231207934,-1.0749882364,1.3503205209,10.1165835424
1520603865106196026,0.0287130386,-0.0264954064,-0.3195339952,-1.0088470122,1.3754973185,10.0961587610
1520603865111214026,0.0005727604,-0.0230112760,-0.3189139534,-0.9427057880,1.3958775544,10.0536579217
1520603865116229026,-0.0255632470,-0.0256527172,-0.3156388712,-0.8970082149,1.4294499271,10.0624775397
1520603865121245026,-0.0481805454,-0.0288799198,-0.3107514939,-0.8080182042,1.4378369793,10.0069824143
1520603865126261026,-0.0692906233,-0.0326900291,-0.3056008172,-0.6913691360,1.4294339113,9.9709908906
1520603865131277026,-0.0871383954,-0.0411668384,-0.2983274102,-0.6444689952,1.3958543267,9.9554592635
1520603865136293026,-0.1024740143,-0.0499325908,-0.2916019852,-0.5638969584,1.4186317195,9.9104913370
1520603865141309026,-0.1155498334,-0.0592765840,-0.2862379364,-0.4352222132,1.4725830170,9.8731598131
1520603865146325026,-0.1233484241,-0.0697891467,-0.2789987599,-0.3474347701,1.5253383584,9.8315788547
1520603865151341026,-0.1246141626,-0.0785399160,-0.2758165681,-0.2836986813,1.6020783815,9.7878843227
1520603865156357026,-0.1266377180,-0.0919611458,-0.2696925406,-0.2067343477,1.6680251106,9.7963680370
1520603865161374026,-0.1243861550,-0.1021711015,-0.2651752689,-0.1369854203,1.7387689633,9.7305400913
1520603865166389026,-0.1176211042,-0.1167369411,-0.2655695705,-0.0997058212,1.7951256597,9.6720150779
1520603865171405026,-0.1093446145,-0.1307288905,-0.2624451298,-0.0251466230,1.8418863293,9.6654330404
1520603865176421026,-0.0985470840,-0.1383072106,-0.2600880860,0.0001072989,1.8466809242,9.6210210866
1520603865181437026,-0.0842390225,-0.1505419340,-0.2593964211,-0.0095132428,1.8382876905,9.6466900794
1520603865186453026,-0.0684177148,-0.1595744791,-0.2573303732,0.0205509501,1.8658655787,9.5894255044
1520603865191469026,-0.0503378382,-0.1697665772,-0.2571712393,0.0109304084,1.9030396811,9.6034286228
1520603865196484026,-0.0350193477,-0.1787985908,-0.2553748038,-0.0263491907,1.9318219547,9.6095741352
1520603865201502026,-0.0166865453,-0.1881178937,-0.2546683757,-0.0528056804,1.9450145599,9.5877380486
1520603865206516026,0.0036539661,-0.1985983049,-0.2553273031,-0.0985032535,1.9390224169,9.5719186721
1520603865211533026,0.0247577870,-0.2029629879,-0.2545882165,-0.1381879881,1.9294323843,9.5409364069
1520603865216549026,0.0418464994,-0.2041283869,-0.2521939329,-0.1393905558,1.8790685801,9.5165922011
1520603865221565026,0.0586847480,-0.2050039567,-0.2492558678,-0.1790752903,1.8095215264,9.5065869941
1520603865226581026,0.0752826044,-0.1994764496,-0.2435629691,-0.1886958320,1.7459678332,9.5044183216
1520603865231597026,0.0860996194,-0.1948260891,-0.2375954591,-0.1886958320,1.6740194078,9.4498677161
1520603865236613026,0.0964192273,-0.1866807680,-0.2310592469,-0.1526188006,1.6140595768,9.4553857512
1520603865241629026,0.1029689490,-0.1817552653,-0.2196706616,-0.1021109567,1.5241201114,9.4596304151
1520603865246645026,0.1097672408,-0.1791621972,-0.2077592360,-0.0900852795,1.4641621536,9.3956539140
1520603865251661026,0.1115425474,-0.1745321350,-0.1955523683,-0.0888827118,1.4078024600,9.3678057130
1520603865256675026,0.1105580166,-0.1643566517,-0.1870857707,-0.0997058212,1.3490454222,9.3482119089
1520603865261693026,0.1078158445,-0.1536012739,-0.1777998221,-0.1165417692,1.2890897123,9.2833541852
1520603865266709026,0.1015603736,-0.1387657057,-0.1692878539,-0.1526188006,1.1919621478,9.1873421052
1520603865271725026,0.0895289462,-0.1207257154,-0.1612817889,-0.1502136652,1.1320049393,9.1838907301
1520603865276740026,0.0787573139,-0.0997692022,-0.1540674644,-0.2103420508,1.0468706522,9.1555054072
1520603865281757026,0.0654647819,-0.0817144071,-0.1517405296,-0.2319882697,1.0348809339,9.1104041774
1520603865286772026,0.0443800966,-0.0642417911,-0.1507563020,-0.2452165145,1.0168948578,9.1035776094
1520603865291788026,0.0242997716,-0.0470587088,-0.1503172562,-0.2632550302,0.9965108755,9.1223673673
1520603865296804026,0.0022083542,-0.0295813876,-0.1512249831,-0.2752807073,0.9773255653,9.0806659449
1520603865301820026,-0.0223963652,-0.0144455967,-0.1486287307,-0.2752807073,0.9869186887,9.0829808781
1520603865306835026,-0.0505226123,-0.0019343733,-0.1457754060,-0.2752807073,0.9629358802,9.0655721056
1520603865311853026,-0.0794079975,0.0044472816,-0.1391797235,-0.2223677280,0.9449446528,9.0604260474
1520603865316868026,-0.1108042617,0.0114063503,-0.1309516522,-0.2163548894,0.9797192568,9.0847386343
1520603865321885026,-0.1409541975,0.0099113895,-0.1211671085,-0.2043292123,1.0504676052,9.1112819036
1520603865326900026,-0.1723613371,0.0057840061,-0.1078831424,-0.1911009674,1.0840425068,9.0774182318
1520603865331916026,-0.2004991769,0.0016498898,-0.0916292389,-0.1694547486,1.1188158932,9.0725250542
1520603865336932026,-0.2263836856,-0.0083095741,-0.0759650893,-0.2043292123,1.1751782092,9.0844309814
1520603865341947026,-0.2547803435,-0.0165166163,-0.0621767553,-0.2307857020,1.2579209590,9.0671756489
1520603865346965026,-0.2756400125,-0.0247141490,-0.0508373360,-0.3077500356,1.3670487317,9.0527104913
1520603865351979026,-0.2970053998,-0.0340723176,-0.0413996969,-0.3762963952,1.4150196873,9.0207908752
1520603865356995026,-0.3161033346,-0.0393509453,-0.0316645892,-0.3618655827,1.4569884782,9.0322309272
1520603865362012026,-0.3324382565,-0.0449169607,-0.0230190221,-0.4027528849,1.4821736115,8.9698485695
1520603865367027026,-0.3482668797,-0.0458118856,-0.0175853699,-0.4604761351,1.5277454433,8.8564758698
1520603865372043026,-0.3575597066,-0.0440766909,-0.0140376660,-0.4977557342,1.5589259978,8.7859175425
1520603865377060026,-0.3633373764,-0.0411592826,-0.0161690677,-0.5879483127,1.5253570904,8.7170995260
1520603865382075026,-0.3666020069,-0.0356067742,-0.0226138632,-0.6144048024,1.4977789212,8.6267367036
1520603865387092026,-0.3655958746,-0.0300482214,-0.0306898683,-0.6613049432,1.4054487613,8.6086889366
1520603865392108026,-0.3628319245,-0.0247774503,-0.0398535472,-0.6492792661,1.3490882248,8.5458710715
1520603865397124026,-0.3575504111,-0.0163011932,-0.0487268935,-0.6745331880,1.2507606770,8.5101863009
1520603865402140026,-0.3467446320,-0.0098573628,-0.0595198905,-0.7322564383,1.1812150281,8.5235995488
1520603865407154026,-0.3309139269,-0.0022372839,-0.0735598805,-0.7214333288,1.1500365341,8.5363081896
1520603865412171026,-0.3140815431,0.0039313651,-0.0895066740,-0.7623206311,1.1272560505,8.5425390987
1520603865417187026,-0.2967444957,0.0109714509,-0.1043655481,-0.7466872508,1.0888823394,8.5180193288
1520603865422202026,-0.2753883409,0.0159697781,-0.1178947219,-0.7130153548,1.0601003468,8.5514218260
1520603865427220026,-0.2545394923,0.0171784527,-0.1309107706,-0.6961794069,1.0277222441,8.5361816560
1520603865432236026,-0.2304232335,0.0178012676,-0.1423140575,-0.6192150732,0.9833480542,8.5668536847
1520603865437252026,-0.2048054780,0.0120062009,-0.1507930478,-0.6047842607,0.9749529473,8.5725321292
1520603865442267026,-0.1819558398,0.0024176817,-0.1576725288,-0.6059868284,0.9617624963,8.6387989024
1520603865447283026,-0.1555805027,-0.0045601101,-0.1596687101,-0.5458584427,0.9689526558,8.6858545356
1520603865452300026,-0.1277004971,-0.0141612287,-0.1611466077,-0.5566815522,0.9701526392,8.7057151590
1520603865457314026,-0.1010782206,-0.0258076304,-0.1607439119,-0.5109839791,0.9977293099,8.7935664126
1520603865462332026,-0.0749528298,-0.0360096897,-0.1557298871,-0.4845274894,1.0085195132,8.8502434311
1520603865467348026,-0.0488279290,-0.0488444077,-0.1469482275,-0.4592735674,1.0229072314,8.9499279729
1520603865472363026,-0.0242040506,-0.0584824995,-0.1351633088,-0.4171836975,1.0432893405,9.0413077895
1520603865477379026,0.0011755668,-0.0687118060,-0.1201376857,-0.3871195046,1.0576766841,9.1153783441
1520603865482396026,0.0255483580,-0.0812776817,-0.1032341591,-0.3462322024,1.0900502911,9.2160553240
1520603865487411026,0.0489155579,-0.0941353357,-0.0863309886,-0.3113577387,1.1032381196,9.3214581145
1520603865492427026,0.0695244062,-0.1040867833,-0.0669655403,-0.1947086706,1.1380041068,9.3969903142
1520603865497444026,0.0903843730,-0.1157937239,-0.0449084383,-0.1213520401,1.1739726063,9.4915370298
1520603865502458026,0.1084776730,-0.1307135332,-0.0204357432,-0.0804647378,1.1667745793,9.5876040221
1520603865507474026,0.1270784123,-0.1412587356,0.0027166352,0.0037150021,1.2027422358,9.6576403692
1520603865512491026,0.1474440887,-0.1497737551,0.0296689508,0.0518177106,1.2231238766,9.7768531154
1520603865517507026,0.1640408081,-0.1588773910,0.0582470964,0.0782742003,1.2339140799,9.8579351569
1520603865522522026,0.1761167438,-0.1662352205,0.0871175274,0.1215666379,1.3274436612,9.9573669465
1520603865527542026,0.1854294118,-0.1700851353,0.1114204891,0.1311871796,1.3502265799,10.0386011654
1520603865532555026,0.1967539640,-0.1736465201,0.1370746697,0.1600488048,1.3562200342,10.0650437083
1520603865537571026,0.2060739318,-0.1734228789,0.1635731218,0.1600488048,1.3718088597,10.1440542958
1520603865542587026,0.2088614511,-0.1717426897,0.1892831865,0.1720744819,1.4077821358,10.2136308023
1520603865547602026,0.2096460169,-0.1639412993,0.2139614861,0.1720744819,1.4305658039,10.2752022144
1520603865552618026,0.2074185212,-0.1517623098,0.2357027279,0.0987178514,1.4473594830,10.2910077235
1520603865557634026,0.1996681359,-0.1319941915,0.2518305740,0.1011229868,1.4557532787,10.3060839994
1520603865562650026,0.1911666258,-0.1101866768,0.2679753818,0.0939075805,1.4725418066,10.2887056997
1520603865567666026,0.1786478119,-0.0851725940,0.2830699276,0.1071358254,1.4725407763,10.3025226715
1520603865572681026,0.1606030269,-0.0554861414,0.2936110304,0.1612513725,1.4569477361,10.3229297366
1520603865577699026,0.1400489937,-0.0228860996,0.3039084854,0.1552385339,1.4581473448,10.3160142288
1520603865582715026,0.1174890157,0.0137961800,0.3128880679,0.1347948828,1.4785343243,10.2871397371
1520603865587730026,0.0893990598,0.0510663470,0.3191769056,0.1744796173,1.4989166207,10.3215979101
1520603865592747026,0.0605563092,0.0897960550,0.3243960752,0.2129617841,1.4965153427,10.3491171419
1520603865597763026,0.0286918567,0.1238617006,0.3298558221,0.2346080030,1.4881196739,10.3338067649
1520603865602778026,-0.0094575285,0.1567622605,0.3342361611,0.2273925967,1.5073064826,10.3652361725
1520603865607794026,-0.0503748938,0.1879178008,0.3369850202,0.2273925967,1.5085056230,10.3501271318
1520603865612810026,-0.0887839283,0.2179189856,0.3359326771,0.2394182738,1.4737296141,10.3198282493
1520603865617826026,-0.1292050745,0.2447054117,0.3381061647,0.2141643518,1.4329608066,10.2689794790
1520603865622841026,-0.1703851314,0.2682884980,0.3394449608,0.1576436693,1.3730081875,10.2347237650
1520603865627858026,-0.2125764484,0.2898424252,0.3367118738,0.0902998774,1.3418357814,10.2214639235
1520603865632873026,-0.2527624753,0.3087797784,0.3320612239,-0.0071081073,1.3214579807,10.1724597218
1520603865637890026,-0.2889359891,0.3227702689,0.3254714928,-0.1009083890,1.3430498138,10.1663788044
1520603865642906026,-0.3223552402,0.3318192319,0.3147806468,-0.1117314984,1.3550420609,10.1060409709
1520603865647923026,-0.3525118759,0.3370785622,0.3051370169,-0.1225546078,1.3922162570,10.1212179383
1520603865652938026,-0.3781491393,0.3382551824,0.2973476840,-0.1093263629,1.4413799841,10.0699069058
1520603865657954026,-0.3962514877,0.3356431152,0.2908681788,-0.0047029719,1.4641555037,10.0235427342
1520603865662970026,-0.4090817081,0.3292451167,0.2843499723,0.0638433877,1.4809381310,10.0798042290
1520603865667985026,-0.4168852542,0.3210905821,0.2815967354,0.1708719142,1.5360902548,10.1217080157
1520603865673000026,-0.4158967324,0.3091456672,0.2809626302,0.2358105707,1.5049075461,10.1152956257
1520603865678019026,-0.4111387752,0.2960315919,0.2822064531,0.3067620657,1.4905123351,10.1192676352
1520603865683034026,-0.4000986962,0.2837992307,0.2815514559,0.3248005814,1.4773203856,10.1342127935
1520603865688049026,-0.3810149886,0.2724412599,0.2819703764,0.3897392379,1.4473368173,10.1382585298
1520603865693066026,-0.3556468736,0.2628355145,0.2818498755,0.4258162693,1.4161563565,10.1239920535
1520603865698082026,-0.3252445139,0.2581801762,0.2836516539,0.4282214047,1.2938438460,10.0508728468
1520603865703098026,-0.2895592451,0.2584840845,0.2841286941,0.4823369518,1.2003066783,9.9307365005
1520603865708113026,-0.2506010620,0.2640378364,0.2832869529,0.5136037124,1.0839876221,9.8259526390
1520603865713130026,-0.2154157446,0.2687232423,0.2797400844,0.5003754675,1.0024471035,9.7331893934
1520603865718145026,-0.1746975405,0.2769088853,0.2756685332,0.4498676236,0.9544854203,9.5501090345
1520603865723160026,-0.1337299271,0.2845154999,0.2702393396,0.4342342433,0.8669493870,9.4155378634
1520603865728178026,-0.0925071416,0.2956217410,0.2637541727,0.4618933007,0.7926005265,9.2410195530
1520603865733193026,-0.0492681554,0.3119780618,0.2556820122,0.4354368110,0.7158576000,9.1472182416
1520603865738210026,-0.0087938444,0.3309688721,0.2427651673,0.4198034308,0.6594992176,9.0788588730
1520603865743225026,0.0299231782,0.3511238029,0.2301310277,0.3885366702,0.6163325976,8.9618287613
1520603865748242026,0.0678899150,0.3750715362,0.2156333671,0.3692955868,0.5731650409,8.9899495933
1520603865753258026,0.1015842698,0.4010674855,0.1973715598,0.3500545034,0.5839588033,8.9808291985
1520603865758273026,0.1355263559,0.4229775939,0.1815130757,0.3837263994,0.5911510233,9.0386016386
1520603865763289026,0.1687101900,0.4416821773,0.1656315379,0.4113854568,0.6223265201,9.1487056952
1520603865768305026,0.1986233050,0.4551296327,0.1537742403,0.4534753267,0.7014665100,9.3109189954
1520603865773320026,0.2262657999,0.4621664709,0.1416016895,0.5160088478,0.7901980310,9.3718174309
1520603865778337026,0.2526386006,0.4590021730,0.1301653020,0.5376550666,0.8621447705,9.5435338848
1520603865783354026,0.2800159733,0.4526206558,0.1233018738,0.5689218272,0.9832555181,9.7546216497
1520603865788369026,0.3081325958,0.4369216850,0.1139309938,0.5929731814,1.0444098065,9.9356223691
1520603865793385026,0.3304578584,0.4113068199,0.1069301765,0.6470887285,1.1127565960,10.1000534308
1520603865798402026,0.3522748897,0.3807345788,0.1012452297,0.7072171142,1.1475269852,10.2505129812
1520603865803417026,0.3730747997,0.3402497709,0.0973803862,0.8310815886,1.2254614658,10.3944993476
1520603865808433026,0.3865828175,0.2956783539,0.0951212298,0.9056407868,1.2386462035,10.5622716447
1520603865813449026,0.3990782461,0.2446917128,0.0944383078,0.9573511984,1.2770146697,10.6953774632
1520603865818464026,0.4098101371,0.1896213570,0.0950802591,1.0198847195,1.2794080802,10.8249265844
1520603865823480026,0.4137574851,0.1339612033,0.0973536412,1.0691899958,1.2674128359,10.8523498254
1520603865828497026,0.4139255848,0.0715999139,0.0987712555,1.1485594648,1.2758006373,10.9050277282
1520603865833513026,0.4103243315,0.0083586235,0.1018124768,1.1870416316,1.2757976402,10.8883831510
1520603865838528026,0.3991896137,-0.0505133958,0.1043599542,1.1726108191,1.2518159557,10.8013862019
1520603865843545026,0.3860459597,-0.1073421405,0.1053034517,1.1678005482,1.1882618879,10.7526849511
1520603865848561026,0.3703915207,-0.1612521970,0.1041094801,1.1305209491,1.1666802637,10.6996102340
1520603865853576026,0.3499722168,-0.2072938282,0.1019022159,1.0944439177,1.1666830735,10.6186113089
1520603865858592026,0.3288051832,-0.2460387582,0.0951526488,1.0487463446,1.1343098412,10.5330890206
1520603865863608026,0.3048804645,-0.2789527102,0.0868294020,1.0571643186,1.0983349728,10.4365842172
1520603865868624026,0.2812188333,-0.3040028235,0.0799184413,1.0944439177,1.0635569971,10.3339866033
1520603865873639026,0.2575663994,-0.3214732971,0.0717125512,1.0499489123,1.0383785136,10.3204985191
1520603865878656026,0.2309050717,-0.3322350952,0.0605873880,1.0884310792,1.0503669207,10.2527079145
1520603865883673026,0.2117851748,-0.3403678368,0.0481155014,1.0932413500,1.0587605291,10.2177885903
1520603865888689026,0.1878972845,-0.3447195491,0.0375752039,1.1160901366,1.0539621878,10.1641122497
1520603865893704026,0.1645183703,-0.3447017535,0.0276084110,1.1389389231,1.0611552508,10.1197213673
1520603865898720026,0.1444028714,-0.3449638645,0.0138456851,1.1990673088,1.0839342359,10.0819252905
1520603865903735026,0.1240455689,-0.3411598023,0.0049843752,1.2171058244,1.1187079033,10.1096072587
1520603865908752026,0.1082152481,-0.3364878271,-0.0009026616,1.2399546110,1.1474854939,10.0500874569
1520603865913769026,0.0921332757,-0.3324001763,-0.0062525860,1.2471700173,1.1390909490,9.9791346307
1520603865918784026,0.0778163305,-0.3254045468,-0.0091486336,1.3024881321,1.1294935172,9.9286333628
1520603865923799026,0.0627489585,-0.3181280263,-0.0082534154,1.3048932675,1.1139045044,9.8472750773
1520603865928816026,0.0506983602,-0.3099761707,-0.0073571286,1.2808419132,1.0827287266,9.7510816330
1520603865933833026,0.0409123565,-0.2991987829,-0.0072566722,1.2579931267,1.0215743445,9.7025536193
1520603865938847026,0.0303769020,-0.2843386650,-0.0084764220,1.2628033975,1.0311670933,9.6374173829
1520603865943864026,0.0218522341,-0.2691863749,-0.0096976824,1.2640059652,1.0023876295,9.5328407861
1520603865948880026,0.0130770594,-0.2534514143,-0.0109140300,1.2928675904,0.9424283604,9.4849704296
1520603865953895026,0.0068154923,-0.2359613344,-0.0142860734,1.3517934083,0.9016529967,9.4158701461
1520603865958912026,-0.0009494259,-0.2158522983,-0.0165531252,1.3505908406,0.8752720011,9.3426925075
1520603865963928026,-0.0069518611,-0.1919487466,-0.0209589110,1.3349574603,0.8992560271,9.3532805820
1520603865968944026,-0.0139540776,-0.1630876813,-0.0269483130,1.3265394863,0.8668798913,9.3115569072
1520603865973959026,-0.0171936292,-0.1385929933,-0.0340602456,1.3674267886,0.8416947580,9.3088592035
1520603865978976026,-0.0242070619,-0.1170121705,-0.0417285000,1.4167320648,0.8285003732,9.2828249920
1520603865983992026,-0.0251902010,-0.0954260711,-0.0504901394,1.4419859868,0.8249009851,9.2512048070
1520603865989008026,-0.0289390816,-0.0758851169,-0.0576389310,1.4888861276,0.8488801408,9.2704813703
1520603865994023026,-0.0341997579,-0.0589657574,-0.0653460218,1.5165451850,0.8464797058,9.2818359322
1520603865999040026,-0.0359474413,-0.0455401770,-0.0736274156,1.5285708621,0.8536736118,9.3421433512
1520603866004054026,-0.0392045916,-0.0341585211,-0.0805688412,1.5201528881,0.9004407439,9.4002868801
1520603866009072026,-0.0419642918,-0.0265646672,-0.0875401003,1.5345837007,0.9280198497,9.4675238740
1520603866014088026,-0.0459836539,-0.0213023818,-0.0945268105,1.5959146540,1.0071583410,9.4877683309
1520603866019104026,-0.0474908666,-0.0177925180,-0.0996377051,1.6668661491,1.0467244490,9.5033091597
1520603866024119026,-0.0482466919,-0.0166156204,-0.1039561470,1.6584481751,1.1234700917,9.5776934705
1520603866029136026,-0.0497545711,-0.0160305283,-0.1050310840,1.6933226388,1.1498484649,9.5564097072
1520603866034151026,-0.0510130803,-0.0142681448,-0.1104263298,1.6897149356,1.2014117841,9.5575566847
1520603866039168026,-0.0527752849,-0.0125023161,-0.1171733716,1.6861072325,1.2098060481,9.5877993573
1520603866044183026,-0.0540254397,-0.0063771774,-0.1195592663,1.7101585868,1.2505749493,9.5933362184
1520603866049199026,-0.0532676268,-0.0031701954,-0.1200773043,1.7185765607,1.2865485063,9.5850841952
1520603866054214026,-0.0567879548,-0.0005301738,-0.1270849557,1.7065508836,1.3345150599,9.5863166161
1520603866059232026,-0.0608128603,0.0006527282,-0.1341027891,1.6812969616,1.3405127288,9.6051508789
1520603866064247026,-0.0625719011,0.0032861547,-0.1384082486,1.7161714253,1.3393108723,9.6117854653
1520603866069264026,-0.0660873953,0.0073736293,-0.1418876879,1.7450330504,1.3453043266,9.6568223115
1520603866074278026,-0.0696041244,0.0094163132,-0.1434888676,1.7654767016,1.3668872620,9.6263865346
1520603866079295026,-0.0736278460,0.0100098903,-0.1480762341,1.8292127903,1.3632848767,9.6408775460
1520603866084311026,-0.0781489785,0.0126349494,-0.1496711007,1.8508590092,1.3345038207,9.6616135103
1520603866089327026,-0.0814185409,0.0129352520,-0.1534504527,1.8676949572,1.3416973520,9.6904962224
1520603866094343026,-0.0856930399,0.0114781125,-0.1539947256,1.9302284782,1.3416924817,9.6585096727
1520603866099359026,-0.0889605833,0.0114790179,-0.1548002959,1.9687106450,1.3045161314,9.7151164141
1520603866104374026,-0.0914768726,0.0085620028,-0.1540062219,1.9807363222,1.2613461396,9.7452572026
1520603866109391026,-0.0927370637,0.0053540954,-0.1532167045,1.9747234836,1.2853294163,9.7580759246
1520603866114407026,-0.0962698979,-0.0054285105,-0.1532924245,1.9639003742,1.3201053316,9.7755795186
1520603866119423026,-0.0957762819,-0.0144721604,-0.1493040852,1.9975722702,1.2925224793,9.7892243992
1520603866124438026,-0.0965456288,-0.0287634093,-0.1445417901,2.0120030827,1.2829282320,9.8239576119
1520603866129455026,-0.0983207904,-0.0448091867,-0.1376265994,1.9639003742,1.2997199444,9.8813544972
1520603866134471026,-0.1028571185,-0.0596956081,-0.1288035612,1.9230130719,1.2913291458,9.9247599808
1520603866139486026,-0.1048823479,-0.0751601717,-0.1213423658,1.8989617177,1.2637507893,9.8936430899
1520603866144502026,-0.1051466822,-0.0894592365,-0.1136049993,1.9061771240,1.2661485082,9.8714897858
1520603866149518026,-0.1091785191,-0.1023028555,-0.1058495165,1.8881386083,1.2553576493,9.8821351813
1520603866154533026,-0.1101906339,-0.1119393348,-0.0983457263,1.8604795509,1.2157881695,9.8661729704
1520603866159550026,-0.1109598514,-0.1271091079,-0.0919668251,1.8713026603,1.1846096755,9.8265851333
1520603866164567026,-0.1097084304,-0.1358727328,-0.0836489285,1.8893411760,1.1594263217,9.7962183707
1520603866169582026,-0.1089534950,-0.1414371523,-0.0731412773,1.9121899625,1.1078615040,9.7658305134
1520603866174598026,-0.1089528952,-0.1470004103,-0.0631733178,1.9121899625,1.0586967466,9.7077712586
1520603866179615026,-0.1049244771,-0.1481949672,-0.0518267501,1.9446592908,1.0071311796,9.7168026553
1520603866184630026,-0.1016485479,-0.1485163943,-0.0402015671,1.9049745563,0.9807531811,9.7404575268
1520603866189646026,-0.0996323669,-0.1505837072,-0.0296695725,1.8917463114,0.9615679646,9.7347942720
1520603866194662026,-0.0953555039,-0.1517686961,-0.0218405682,1.8809232020,0.9375859990,9.7302744285
1520603866199679026,-0.0903208790,-0.1523808185,-0.0102208753,1.8893411760,0.9255939392,9.7267177546
1520603866204693026,-0.0852868225,-0.1521129600,-0.0007588803,1.8761129311,0.9411837949,9.7314798847
1520603866209710026,-0.0764888662,-0.1541666881,0.0057023243,1.8640872540,0.9243967656,9.6979111313
1520603866214726026,-0.0704502769,-0.1553597289,0.0167746123,1.8701000926,0.8884220846,9.6723205192
1520603866219743026,-0.0636617860,-0.1562465213,0.0224368054,1.9121899625,0.9004102107,9.6556291335
1520603866224757026,-0.0531000766,-0.1556807416,0.0302674801,1.9073796917,0.8668346535,9.6068986491
1520603866229775026,-0.0455543059,-0.1557003693,0.0386404012,1.9314310459,0.8548413761,9.5938926579
1520603866234790026,-0.0380075669,-0.1548451150,0.0467494456,1.9410515876,0.8464466438,9.5984557786
1520603866239805026,-0.0281944770,-0.1513701559,0.0562270268,1.9807363222,0.8560366765,9.5841144296
1520603866244823026,-0.0171232661,-0.1470220079,0.0662500354,1.9795337545,0.8428462255,9.5446261030
1520603866249838026,-0.0098222824,-0.1420874687,0.0743906698,1.9494695616,0.8548399712,9.5414206041
1520603866254853026,0.0020089369,-0.1345396230,0.0866010993,1.9482669939,0.8680306095,9.5367708706
1520603866259871026,0.0138394154,-0.1249404307,0.0944983561,1.9422541554,0.8572388140,9.5414884958
1520603866264886026,0.0219007211,-0.1144656479,0.1013270994,1.9121899625,0.8620377172,9.5371278690
1520603866269902026,0.0294677012,-0.0975791456,0.1076645923,1.8809232020,0.8548453098,9.5664928154
1520603866274917026,0.0372836946,-0.0815630562,0.1126422197,1.8352256289,0.7936927073,9.5762943954
1520603866279934026,0.0433414782,-0.0640870912,0.1162815001,1.8135794101,0.8032875166,9.5916036032
1520603866284949026,0.0463832369,-0.0466108509,0.1193852894,1.8039588684,0.8044874063,9.5951825061
1520603866289965026,0.0484200197,-0.0291357328,0.1227614915,1.8003511652,0.8128816702,9.5835879964
1520603866294982026,0.0502054136,-0.0125385088,0.1274842205,1.7450330504,0.7972971531,9.5457908799
1520603866299998026,0.0514846892,0.0011432160,0.1327267439,1.7113611545,0.7601264224,9.5531277347
1520603866305013026,0.0515034288,0.0139597646,0.1344478350,1.7318048056,0.7661205323,9.6005708042
1520603866310029026,0.0502669875,0.0253079719,0.1402183328,1.7390202119,0.7313448981,9.6284259396
1520603866315045026,0.0482737840,0.0322749178,0.1497445270,1.7209816962,0.7253506009,9.6564988170
1520603866320061026,0.0432623129,0.0380787863,0.1579147000,1.7474381859,0.7145562765,9.6748461331
1520603866325076026,0.0359883134,0.0421283625,0.1679695564,1.7390202119,0.6989681066,9.6702946941
1520603866330094026,0.0302232516,0.0473455245,0.1774894129,1.7306022379,0.7433369579,9.6598740684
1520603866335110026,0.0244595972,0.0534361115,0.1872864846,1.7366150764,0.7541287534,9.6865343300
1520603866340126026,0.0149257587,0.0598202485,0.1957400507,1.6788918262,0.7625272321,9.6940608510
1520603866345142026,0.0091615790,0.0664979752,0.2039182932,1.6512327688,0.7433431395,9.7071323602
1520603866350157026,-0.0016299416,0.0720074662,0.2123675237,1.6788918262,0.7961031639,9.6777580942
1520603866355173026,-0.0078943432,0.0804333032,0.2205600381,1.6740815554,0.8080949428,9.7045225319
1520603866360188026,-0.0199454354,0.0844890215,0.2276477573,1.7113611545,0.7841092309,9.7332366608
1520603866365206026,-0.0299901829,0.0862173650,0.2336317745,1.6837020971,0.8092933340,9.7381298968
1520603866370221026,-0.0385274040,0.0867763905,0.2412273743,1.6981329096,0.8560586865,9.7158630968
1520603866375236026,-0.0485768599,0.0847152782,0.2477235831,1.7498433213,0.8644486421,9.7490537687
1520603866380253026,-0.0558616327,0.0829466335,0.2542168811,1.7714895401,0.8968237477,9.7011636034
1520603866385269026,-0.0636454434,0.0823367741,0.2631549179,1.7642741338,0.8956251692,9.7523693370
1520603866390286026,-0.0704301708,0.0785279062,0.2699022667,1.7522484567,0.9184097739,9.7675720416
1520603866395301026,-0.0774640486,0.0735410183,0.2812404702,1.7438304827,0.9375966763,9.7455545324
1520603866400317026,-0.0832474108,0.0659401748,0.2895803274,1.7726921078,0.9399927093,9.7952434624
1520603866405332026,-0.0867635833,0.0627124421,0.2974082385,1.7233868316,0.9172128813,9.7295033818
1520603866410349026,-0.0922864063,0.0623984955,0.3049915684,1.7354125087,0.9399956127,9.7096076665
1520603866415365026,-0.0955474105,0.0612069108,0.3141873040,1.6957277742,0.9459944056,9.7018530790
1520603866420381026,-0.0978019845,0.0620605107,0.3215029129,1.6885123679,0.9040250528,9.6729106374
1520603866425395026,-0.1015666801,0.0623358497,0.3269230548,1.6283839823,0.9220168421,9.6502354710
1520603866430413026,-0.1053264007,0.0675705532,0.3302166219,1.6223711437,0.9304112934,9.6316915077
1520603866435429026,-0.1078300271,0.0710508859,0.3359294300,1.5706607321,0.9220213378,9.6356894423
1520603866440444026,-0.1078186383,0.0771597630,0.3397637573,1.5754710029,0.9352115078,9.6147111682
1520603866445461026,-0.1090640886,0.0856108788,0.3392894686,1.5586350549,0.9292171169,9.6172051736
1520603866450476026,-0.1100552959,0.0949304193,0.3409857496,1.5490145132,0.9591963768,9.6242424443
1520603866455492026,-0.1118044887,0.1022143433,0.3410445938,1.5622427581,0.9496022231,9.6613116499
1520603866460508026,-0.1153117187,0.1097867773,0.3419205658,1.5634453258,0.9615935337,9.7193954492
1520603866465525026,-0.1140464271,0.1156120464,0.3430448775,1.5694581643,1.0035629802,9.7158095651
1520603866470540026,-0.1140445806,0.1164840147,0.3438631844,1.5321785652,1.0167564284,9.6627009373
1520603866475556026,-0.1173153779,0.1147395267,0.3419620921,1.5129374818,1.0467364375,9.7221283264
1520603866480572026,-0.1165690008,0.1106669945,0.3394946556,1.5261657267,1.0539302498,9.6941010998
1520603866485589026,-0.1160695669,0.1097995937,0.3370521399,1.5249631590,1.0407397988,9.7092335390
1520603866490604026,-0.1133084906,0.1077624419,0.3364903525,1.4912912630,1.0119630511,9.7339943678
1520603866495621026,-0.1075314324,0.1060178561,0.3359251876,1.5117349141,1.0551305141,9.7523475889
1520603866500637026,-0.1055272830,0.1036977656,0.3321160266,1.5177477527,1.0311472374,9.6895566768
1520603866505651026,-0.1020096248,0.1042862836,0.3304906632,1.4359731482,0.9999759552,9.7205987663
1520603866510668026,-0.0972397417,0.1010843813,0.3299162498,1.4479988253,0.9628016655,9.6740322071
1520603866515684026,-0.0919694563,0.0978899602,0.3266354439,1.3998961168,0.9879873608,9.7279344751
1520603866520699026,-0.0859441298,0.0958628295,0.3228210384,1.3746421948,1.0155695574,9.7827741523
1520603866525715026,-0.0804235100,0.0932571034,0.3173798448,1.3313497572,1.0239669121,9.8110788039
1520603866530732026,-0.0786797627,0.0856985488,0.3110962219,1.2976778612,1.0059824282,9.8114240856
1520603866535748026,-0.0754249645,0.0813494569,0.3034815231,1.2579931267,1.0119812211,9.8071559299
1520603866540764026,-0.0736776966,0.0767062044,0.2966790393,1.2267263661,1.0311699031,9.8155765596
1520603866545779026,-0.0736909711,0.0714816790,0.2890637387,1.1665979805,1.0299754456,9.7580557841
1520603866550796026,-0.0739558032,0.0680141034,0.2782156926,1.1377363554,1.0623544849,9.7269272465
1520603866555810026,-0.0727140301,0.0636729651,0.2673581768,1.1052670271,1.0683527159,9.7400210198
1520603866560828026,-0.0722279609,0.0567032431,0.2586464207,1.1100772980,1.1115213965,9.7085542166
1520603866565843026,-0.0717429933,0.0482736848,0.2510057327,1.1341286523,1.1091212424,9.7094845981
1520603866570859026,-0.0732720663,0.0378065609,0.2422710333,1.1124824334,1.0791444177,9.7259945380
1520603866575874026,-0.0758041862,0.0261611217,0.2381285886,1.1533697357,1.0335738972,9.7116952735
1520603866580892026,-0.0745677057,0.0130565946,0.2353207572,1.1569774388,0.9844088588,9.6954380859
1520603866585907026,-0.0750863614,0.0014017450,0.2349622214,1.0703925635,0.9148654578,9.6719436486
1520603866590923026,-0.0713329723,-0.0070316324,0.2292092872,1.0198847195,0.8525140895,9.6376317480
1520603866595939026,-0.0708421985,-0.0116753772,0.2224091370,0.9982385007,0.8393252307,9.6099638468
1520603866600955026,-0.0658241294,-0.0131106631,0.2150839479,0.9320972765,0.7829707821,9.5757982652
1520603866605971026,-0.0620590770,-0.0113382977,0.2067033628,0.8443098334,0.7422068449,9.5499631810
1520603866610987026,-0.0610548735,-0.0046025519,0.1943075157,0.8118405052,0.7338153908,9.5235580919
1520603866616003026,-0.0537629616,0.0068014498,0.1805828404,0.7336736038,0.7170335127,9.5266595792
1520603866621019026,-0.0492357327,0.0179129841,0.1668610759,0.7240530621,0.7038437173,9.5046853473
1520603866626035026,-0.0469675549,0.0304783695,0.1539662650,0.7252556298,0.7062419045,9.5209413189
1520603866631052026,-0.0436978787,0.0398367337,0.1418567711,0.6915837339,0.7158376504,9.4573417883
1520603866636067026,-0.0394205844,0.0521144360,0.1278738198,0.6651272442,0.6954543237,9.5075913683
1520603866641083026,-0.0341380635,0.0597092552,0.1216992632,0.6134168325,0.7158437383,9.4697240565
1520603866646100026,-0.0338912848,0.0606024465,0.1146712724,0.6278476451,0.6882623846,9.5974463256
1520603866651116026,-0.0276064775,0.0641095349,0.1117102765,0.5881629106,0.6642826669,9.6710710484
1520603866656130026,-0.0286202546,0.0568201573,0.1132798416,0.5869603429,0.6295076883,9.8163846585
1520603866661148026,-0.0298854168,0.0501163641,0.1137721361,0.5352499312,0.6079271881,9.9029076767
1520603866666164026,-0.0296419079,0.0434102478,0.1153438138,0.5051857384,0.5563664914,9.8939534330
1520603866671179026,-0.0334187842,0.0369939408,0.1169251821,0.4378419465,0.4712327663,9.9760420161
1520603866676193026,-0.0346725537,0.0378625031,0.1188280063,0.3861315348,0.4268685980,9.9603185837
1520603866681211026,-0.0389498715,0.0331950347,0.1201531007,0.4137905922,0.3812991077,10.0263360077
1520603866686227026,-0.0412145993,0.0299845482,0.1217561226,0.4318291079,0.3561157539,9.9773749419
1520603866691243026,-0.0469971657,0.0244299523,0.1276766283,0.4438547850,0.3741019237,9.9876996468
1520603866696259026,-0.0495105617,0.0197471476,0.1349504654,0.4691087070,0.3872905015,10.0408995998
1520603866701275026,-0.0537856410,0.0147795536,0.1395198875,0.4294239725,0.3908910135,9.9541215621
1520603866706290026,-0.0593206016,0.0074811195,0.1438033126,0.4919574935,0.3896870028,9.9418926289
1520603866711306026,-0.0625852165,0.0024964369,0.1548639693,0.4811343841,0.4484457265,9.9465892526
1520603866716323026,-0.0650982205,-0.0033584617,0.1645638271,0.4739189778,0.4832213607,9.9443012842
1520603866721339026,-0.0668611544,-0.0115419559,0.1734328623,0.4354368110,0.5335882556,9.9655453250
1520603866726354026,-0.0663662721,-0.0232240920,0.1833532036,0.3801186962,0.5971470064,10.0380747077
1520603866731370026,-0.0668813759,-0.0366469164,0.1902860684,0.3680930191,0.6391178578,10.1218251961
1520603866736387026,-0.0656408183,-0.0521065579,0.1963884669,0.3235980137,0.7074723274,10.1628666693
1520603866741403026,-0.0616357148,-0.0693221649,0.2057189436,0.3476493680,0.7566352115,10.3020418997
1520603866746419026,-0.0583814264,-0.0836213081,0.2139908678,0.3163826074,0.7650316297,10.4080931457
1520603866751434026,-0.0503475793,-0.0953004906,0.2238972074,0.2285951644,0.7590427647,10.4763578108
1520603866756450026,-0.0443249970,-0.1055140685,0.2303012996,0.1636565079,0.7314675926,10.5362861203
1520603866761466026,-0.0365378187,-0.1098912539,0.2337705815,0.0734639294,0.7206823533,10.5766874181
1520603866766483026,-0.0289978032,-0.1110625795,0.2369942382,0.0061201375,0.7062979132,10.5692219256
1520603866771498026,-0.0184483999,-0.1148464432,0.2369457357,-0.0840724410,0.6967118143,10.5584877200
1520603866776514026,-0.0076462433,-0.1165861462,0.2352890527,-0.1345802849,0.6415552885,10.6124917439
1520603866781530026,0.0029095425,-0.1145372203,0.2333911907,-0.1742650194,0.6655411878,10.6151789119
1520603866786546026,0.0137060263,-0.1194777825,0.2300867784,-0.1730624517,0.7087101494,10.5953686634
1520603866791562026,0.0202258078,-0.1287951570,0.2283802295,-0.1466059620,0.7614702675,10.6299240199
1520603866796578026,0.0262457595,-0.1375365152,0.2291139732,-0.0828698733,0.7878463928,10.5967378957
1520603866801594026,0.0320173056,-0.1480437613,0.2363279467,-0.0059055396,0.7722515731,10.5088431769
1520603866806609026,0.0340192790,-0.1594302800,0.2448949813,0.0085252729,0.7494667811,10.5005899260
1520603866811626026,0.0332684012,-0.1635383676,0.2554165482,0.0073227052,0.6727218877,10.4611635743
1520603866816642026,0.0315157153,-0.1653165012,0.2662283126,0.0073227052,0.5767906538,10.3322591426
1520603866821658026,0.0295116443,-0.1665090505,0.2759628063,0.0301714918,0.4988447467,10.3030591547
1520603866826673026,0.0287708028,-0.1612840920,0.2833089612,-0.0744518993,0.4364975931,10.2390582388
1520603866831689026,0.0230060938,-0.1554827041,0.2922921721,-0.1141366338,0.3525608543,10.1651491463
1520603866836706026,0.0182479093,-0.1452948575,0.2956253986,-0.1069212275,0.2458367946,10.1140486532
1520603866841722026,0.0124902061,-0.1304430670,0.2981844236,-0.1345802849,0.1535051362,10.1271914921
1520603866846737026,0.0069830961,-0.1167596298,0.3018162732,-0.1622393423,0.1187322181,10.1228460434
1520603866851754026,-0.0002890333,-0.1030572142,0.2981466506,-0.2416088114,0.0791667657,10.1782779312
1520603866856769026,-0.0075612489,-0.0887691158,0.2933992907,-0.3053449002,0.0743751680,10.1742544007
1520603866861785026,-0.0186057540,-0.0733023875,0.2832569060,-0.2812935459,0.0192128353,10.1194533234
1520603866866802026,-0.0283927535,-0.0572531263,0.2733871797,-0.3065474679,0.0396001894,10.1196792508
1520603866871818026,-0.0369271714,-0.0429465810,0.2616079601,-0.3618655827,0.0132234084,10.0667847869
1520603866876833026,-0.0459596981,-0.0248500485,0.2490469363,-0.3955374786,0.0036329075,10.0427168602
1520603866881850026,-0.0539820584,-0.0032572362,0.2367812685,-0.4725018123,0.0408122549,9.9609175135
1520603866886865026,-0.0609946482,0.0215404713,0.2248087337,-0.5398456042,0.0204321126,9.8814049426
1520603866891882026,-0.0742887404,0.0472105993,0.2125839903,-0.5145916822,0.0204301458,9.8230519387
1520603866896897026,-0.0873380887,0.0682194019,0.2000526650,-0.5410481719,0.0707961041,9.7965310268
1520603866901914026,-0.0976267567,0.0868996681,0.1869573292,-0.5422507396,0.1751214146,9.7685495444
1520603866906928026,-0.1079169302,0.1009017563,0.1797784338,-0.5061737082,0.2170885196,9.7449145868
1520603866911946026,-0.1189580598,0.1143083969,0.1771957725,-0.4424376194,0.2578543300,9.6687151042
1520603866916961026,-0.1269881826,0.1230482390,0.1767363085,-0.4219939683,0.3381951462,9.6463570374
1520603866921978026,-0.1357775728,0.1265370368,0.1784025962,-0.4183862652,0.3717707970,9.6637213400
1520603866926992026,-0.1418011431,0.1285583400,0.1843813688,-0.4231965360,0.4365247545,9.6718400236
1520603866932009026,-0.1450707604,0.1247610485,0.1873345410,-0.4099682912,0.4700996561,9.7030564133
1520603866937026026,-0.1478397599,0.1195070313,0.1902756643,-0.4015503172,0.4605058771,9.7413345831
1520603866942041026,-0.1475988462,0.1110533363,0.1915634575,-0.3919297755,0.4928819193,9.7470200902
1520603866947057026,-0.1486185706,0.0964662338,0.1979472717,-0.3522450410,0.4617011775,9.7745556811
1520603866952073026,-0.1473751511,0.0839240796,0.2027191715,-0.3498399055,0.4269259179,9.7048375446
1520603866957088026,-0.1483902102,0.0734192742,0.2080519253,-0.3318013898,0.3969460024,9.6779618913
1520603866962105026,-0.1473972113,0.0608741078,0.2139064754,-0.3510424732,0.3297956372,9.6224317454
1520603866967121026,-0.1436375495,0.0500783317,0.2197692301,-0.3931323432,0.2314694006,9.5555329588
1520603866972136026,-0.1398723443,0.0433619389,0.2256631080,-0.5001608697,0.1727198556,9.5147948241
1520603866977152026,-0.1378673717,0.0369413405,0.2296686548,-0.5638969584,0.0899841304,9.5131715886
1520603866982169026,-0.1368711502,0.0308248445,0.2288084654,-0.5975688544,0.0324280125,9.4752047080
1520603866987185026,-0.1343689431,0.0220806511,0.2300898351,-0.6240253441,0.0108455454,9.3999439103
1520603866992201026,-0.1361377144,0.0147946203,0.2303080709,-0.6637100786,-0.0251255765,9.3736359464
1520603866997216026,-0.1368982952,0.0110114251,0.2283867497,-0.6444689952,-0.0527073048,9.3142062186
1520603867002232026,-0.1381657861,0.0037299618,0.2269807767,-0.6492792661,-0.0982742662,9.2364338288
1520603867007248026,-0.1384208250,0.0008152896,0.2272295585,-0.6432664275,-0.0778893473,9.1945182424
1520603867012264026,-0.1416854673,0.0019773625,0.2280561559,-0.6360510212,-0.0551062413,9.0816978311
1520603867017280026,-0.1449510779,0.0022645534,0.2291466300,-0.6156073701,-0.0814889228,9.0245795168
1520603867022296026,-0.1436898793,0.0045910229,0.2310559023,-0.5663020939,-0.0922850267,8.9497329205
1520603867027312026,-0.1431860938,0.0054653734,0.2310616381,-0.5278199271,-0.0910888834,8.8796285521
1520603867032328026,-0.1429211205,0.0124448603,0.2362548975,-0.5121865468,-0.0635098712,8.8457473169
1520603867037345026,-0.1403912039,0.0211706268,0.2425394784,-0.4809197862,-0.0587157447,8.8187089971
1520603867042361026,-0.1343422216,0.0313583364,0.2474759112,-0.5001608697,0.0024419155,8.8246473615
1520603867047377026,-0.1267842624,0.0409573118,0.2548400105,-0.5013634374,-0.0167442376,8.8095699045
1520603867052393026,-0.1179729767,0.0482257033,0.2621839915,-0.5578841199,-0.0311295207,8.8333769534
1520603867057408026,-0.1056489959,0.0555136839,0.2627577910,-0.6023791253,-0.0443165999,8.8222014636
1520603867062425026,-0.0955841093,0.0645483572,0.2636196754,-0.6240253441,-0.0347217907,8.8502942548
1520603867067440026,-0.0867743996,0.0735781676,0.2661071688,-0.6637100786,-0.0790868955,8.8972095454
1520603867072454026,-0.0724430626,0.0791208140,0.2658522583,-0.6360510212,-0.0407165562,8.8794707510
1520603867077472026,-0.0586183691,0.0823351011,0.2644983129,-0.6180125055,-0.0395188207,8.8827804376
1520603867082488026,-0.0460459044,0.0878763299,0.2645172154,-0.5987714221,-0.0191349320,8.9069783010
1520603867087504026,-0.0365024844,0.0849727818,0.2620423360,-0.5350353333,-0.0371270023,8.9598340950
1520603867092520026,-0.0254489035,0.0808911746,0.2644255900,-0.4785146508,-0.0263391405,9.0104077673
1520603867097535026,-0.0169153951,0.0712708199,0.2673123645,-0.4773120831,0.0024401360,9.0440701727
1520603867102552026,-0.0088835630,0.0613545132,0.2718211247,-0.4761095154,-0.0251401874,9.0650039537
1520603867107567026,0.0014098252,0.0508541383,0.2771328759,-0.4556658643,-0.0311374818,9.0648108144
1520603867112584026,0.0064259419,0.0418151743,0.2800306306,-0.4532607288,-0.0251419670,9.0717544213
1520603867117600026,0.0132063842,0.0359792156,0.2840317558,-0.4556658643,-0.0119512350,9.0903592720
1520603867122614026,0.0189804001,0.0295615509,0.2874892099,-0.4568684320,0.0288196330,9.0240890141
1520603867127631026,0.0245090959,0.0257582357,0.2939431434,-0.4292093746,0.0240209172,9.0284730510
1520603867132648026,0.0310509963,0.0286608006,0.2990936115,-0.4003477495,0.0156246864,9.0212274513
1520603867137663026,0.0395989319,0.0283589234,0.3042158918,-0.3654732858,0.0240159532,9.0057719479
1520603867142679026,0.0468962225,0.0315495261,0.3107199123,-0.2981294939,0.0144175849,9.0190715469
1520603867147696026,0.0516861977,0.0379400034,0.3188763293,-0.2921166553,0.0527896101,8.9992191555
1520603867152711026,0.0582326301,0.0443399111,0.3237829285,-0.2536344885,0.0611805959,8.9930256885
1520603867157726026,0.0688001497,0.0501549828,0.3300303435,-0.2151523217,0.0911561094,9.0170269163
1520603867162744026,0.0743473654,0.0591689447,0.3379348222,-0.1742650194,0.1307245589,9.0456439550
1520603867167760026,0.0821541615,0.0676053942,0.3442073788,-0.1189469046,0.1714910250,9.0869029473
1520603867172774026,0.0902118996,0.0739942377,0.3534399120,-0.0323620293,0.2158524771,9.1080976528
1520603867177791026,0.0992745665,0.0792135664,0.3642849614,0.0277663563,0.1858692835,9.1912159981
1520603867182807026,0.1070795904,0.0818019293,0.3780883414,0.0734639294,0.1355018267,9.2361439325
1520603867187824026,0.1118721060,0.0858423912,0.3932611670,0.1263769088,0.1139131780,9.2321635262
1520603867192839026,0.1186732088,0.0887188310,0.4081508206,0.1889104299,0.0383624610,9.2304663877
1520603867197855026,0.1247180394,0.0898466683,0.4230285359,0.2225823258,0.0263684343,9.2673389461
1520603867202871026,0.1312670946,0.0918473993,0.4384530787,0.2237848935,0.0203726385,9.2615223679
1520603867207887026,0.1380687737,0.0967708152,0.4506528350,0.2574567895,0.0059803310,9.2414522112
1520603867212903026,0.1411007508,0.1016934826,0.4625890462,0.2983440917,0.0119728487,9.2921827266
1520603867217919026,0.1443860929,0.1074874884,0.4756136435,0.3717007222,0.0143654163,9.3693300244
1520603867222934026,0.1479211028,0.1109454174,0.4905138106,0.4125880245,0.0395441807,9.3479889052
1520603867227951026,0.1494469100,0.1152767123,0.5054243808,0.3849289671,0.0935076539,9.4028262670
1520603867232967026,0.1494514263,0.1129201410,0.5148757025,0.3644853160,0.1210894759,9.4122955098
1520603867237983026,0.1494610470,0.1146444100,0.5238170556,0.3933469411,0.1690528450,9.4410214138
1520603867242999026,0.1477080592,0.1149161661,0.5308567390,0.3909418056,0.1906375599,9.4479966395
1520603867248015026,0.1441917613,0.1140304361,0.5346442465,0.4414496496,0.2002267496,9.4916571427
1520603867253031026,0.1401749318,0.1140157491,0.5395215402,0.4426522173,0.2134172006,9.4962811507
1520603867258046026,0.1361522530,0.1105080898,0.5430194273,0.4570830299,0.1738444427,9.5345300287
1520603867263063026,0.1298662147,0.1064196892,0.5454348853,0.4486650559,0.1738450983,9.5648277069
1520603867268079026,0.1215621802,0.0988433562,0.5443103034,0.4101828891,0.1774455167,9.6186573826
1520603867273094026,0.1135108558,0.0936040253,0.5410386722,0.4234111339,0.1930333120,9.6464048805
1520603867278111026,0.1049573729,0.0883630406,0.5383090663,0.4210059985,0.2433973971,9.6521898981
1520603867283127026,0.0981593358,0.0825494457,0.5320546505,0.4270188370,0.2985573882,9.6834554700
1520603867288142026,0.0901077096,0.0793600045,0.5250109384,0.3993597796,0.3249406317,9.7313468629
1520603867293159026,0.0807946613,0.0723813438,0.5182112058,0.4558804621,0.3441224765,9.7179944324
1520603867298175026,0.0712343169,0.0680235885,0.5119730394,0.4450573527,0.3765001109,9.7389867969
1520603867303190026,0.0624288373,0.0645410106,0.5054695962,0.4342342433,0.4040811835,9.7227952322
1520603867308207026,0.0523683142,0.0616385241,0.4997845704,0.4426522173,0.4112753705,9.7157334171
1520603867313222026,0.0428089342,0.0566921723,0.4957063250,0.5364524989,0.4412465756,9.7357097804
1520603867318239026,0.0362600828,0.0488367988,0.4902475186,0.5665166917,0.4736210255,9.7353855818
1520603867323253026,0.0304697423,0.0424299022,0.4880449782,0.5364524989,0.5107967201,9.7960734443
1520603867328271026,0.0249343583,0.0409868390,0.4820921210,0.4618933007,0.5024085441,9.8154016464
1520603867333286026,0.0209048776,0.0389652397,0.4747792877,0.4727164101,0.5084034033,9.8559654926
1520603867338301026,0.0188777390,0.0319952616,0.4658016529,0.4727164101,0.5467758968,9.8512794980
1520603867343319026,0.0170993941,0.0241555990,0.4551936067,0.4787292487,0.6043341688,9.8941641707
1520603867348333026,0.0155819374,0.0227235807,0.4457161853,0.4378419465,0.6559003915,9.9398354753
1520603867353349026,0.0140574356,0.0139974797,0.4397002834,0.4390445142,0.7218530211,10.0315688289
1520603867358366026,0.0168000860,0.0014843250,0.4339180929,0.4570830299,0.7506309864,10.0476352043
1520603867363382026,0.0172816664,-0.0092755811,0.4259890743,0.5039831707,0.7650170187,10.0866775695
1520603867368399026,0.0180161254,-0.0203333291,0.4204922790,0.5099960092,0.7866010780,10.1540023454
1520603867373413026,0.0205038271,-0.0348833601,0.4136128101,0.5087934415,0.7854020313,10.1935281143
1520603867378430026,0.0237498710,-0.0453500703,0.4054103348,0.4546778944,0.8381684246,10.2207327018
1520603867383446026,0.0252361997,-0.0590350827,0.4017859528,0.4630958684,0.8249772243,10.2845815466
1520603867388462026,0.0299914871,-0.0689206183,0.3943967609,0.4618933007,0.8453627052,10.2927083806
1520603867393477026,0.0339915569,-0.0802655573,0.3878094915,0.5003754675,0.8465588485,10.2307390199
1520603867398494026,0.0389943129,-0.0939433639,0.3820142083,0.5304396603,0.8261711198,10.2955463337
1520603867403509026,0.0452602042,-0.1035449370,0.3776004440,0.5388576343,0.7901962515,10.3512823883
1520603867408526026,0.0520228439,-0.1166392854,0.3718063398,0.5809475043,0.7710067266,10.3264863977
1520603867413541026,0.0580374364,-0.1262409570,0.3673930423,0.6146194003,0.7925886317,10.3145161684
1520603867418557026,0.0638042937,-0.1332202662,0.3630002193,0.6314553482,0.7949856013,10.3608357171
1520603867423573026,0.0705822387,-0.1369990509,0.3605238046,0.6398733222,0.8321582988,10.4269597376
1520603867428589026,0.0778726373,-0.1332001841,0.3575631649,0.5713269626,0.9029129224,10.4508008139
1520603867433605026,0.0849165356,-0.1247341643,0.3527447400,0.5448704729,0.9844565318,10.4486545222
1520603867438621026,0.0927198308,-0.1118956244,0.3474171694,0.5749346657,1.0815845646,10.5075365210
1520603867443636026,0.0995207455,-0.0973106279,0.3426458960,0.6122142648,1.1355429802,10.5431475065
1520603867448654026,0.1050714074,-0.0804052456,0.3416823835,0.6410758899,1.1715149450,10.6183708620
1520603867453669026,0.1121319283,-0.0626280327,0.3418049234,0.7228504944,1.2050845080,10.6628657909
1520603867458686026,0.1196924005,-0.0492323172,0.3459513721,0.7456992810,1.2242689752,10.7242183150
1520603867463701026,0.1267574848,-0.0326410385,0.3536403048,0.7156350881,1.2338644401,10.7895816481
1520603867468718026,0.1335663853,-0.0201314269,0.3621102187,0.7132299527,1.2422586104,10.8790819573
1520603867473731026,0.1426327099,-0.0099483632,0.3692054179,0.6951914370,1.2542514195,10.9129480144
1520603867478749026,0.1481775029,-0.0038533456,0.3789814871,0.6410758899,1.2614504768,10.9553049083
1520603867483765026,0.1534608784,-0.0050423113,0.3884318999,0.5532884469,1.2338770842,11.0084827502
1520603867488780026,0.1595023688,-0.0050741846,0.4011363556,0.5015780352,1.2362793924,11.0438480475
1520603867493797026,0.1622698510,-0.0088887808,0.4113830656,0.4077777536,1.2123038894,11.1331073692
1520603867498813026,0.1657879718,-0.0159119536,0.4229566510,0.3320159877,1.1919244028,11.1791882808
1520603867503828026,0.1650250387,-0.0290536900,0.4336798481,0.2502413832,1.1595539803,11.2160422593
1520603867508845026,0.1630023575,-0.0439413120,0.4433098568,0.1480231276,1.1835447498,11.2263109540
1520603867513861026,0.1572113347,-0.0591268945,0.4548384645,0.1035281222,1.1619636876,11.2128193617
1520603867518877026,0.1514193005,-0.0748945175,0.4660920802,0.0349817626,1.1859518347,11.1658152610
1520603867523892026,0.1395878772,-0.0929788258,0.4711165569,-0.0071081073,1.1691671469,11.1511334374
1520603867528909026,0.1265002263,-0.1098937177,0.4745289842,-0.0059055396,1.1152057342,11.1186343219
1520603867533923026,0.1159273593,-0.1285697724,0.4830637778,-0.0479954096,1.0636459741,11.0772570981
1520603867538940026,0.1005785874,-0.1463655314,0.4886381036,-0.0107158105,1.0588465089,11.0199538649
1520603867543956026,0.0875004318,-0.1592141516,0.4969514802,0.0181458146,1.0600434015,11.0068881907
1520603867548972026,0.0729202030,-0.1676918663,0.5050304575,0.0301714918,1.0864235542,10.9614218005
1520603867553987026,0.0580897340,-0.1744170016,0.5114999648,-0.0143235136,1.1092106877,10.8979147526
1520603867559004026,0.0472807480,-0.1814355884,0.5193125108,-0.0119183782,1.1331933088,10.8478957657
1520603867564020026,0.0342171959,-0.1846736182,0.5295930705,0.0013098666,1.1631707892,10.8059005943
1520603867569037026,0.0226628912,-0.1858669951,0.5382631161,-0.0239440553,1.2339220410,10.7375109161
1520603867574051026,0.0146219755,-0.1902627665,0.5463610818,0.0361843303,1.2734889920,10.7275899235
1520603867579068026,0.0060786425,-0.1929031434,0.5517678606,0.0229560855,1.3022693924,10.7230420391
1520603867584084026,-0.0029616624,-0.1935134950,0.5607082310,0.0638433877,1.3022662079,10.7110226277
1520603867589101026,-0.0097365808,-0.1909155455,0.5688572172,0.1155537994,1.2866733551,10.6884537765
1520603867594115026,-0.0149994840,-0.1856967298,0.5778350485,0.1359974505,1.2363078651,10.6290345612
1520603867599132026,-0.0182489152,-0.1775603675,0.5857491933,0.1696693465,1.2075258724,10.6008434288
1520603867604147026,-0.0182274588,-0.1668017213,0.5942183702,0.1684667787,1.2015302640,10.5915638289
1520603867609164026,-0.0187103093,-0.1548668075,0.5986391845,0.1780873205,1.1919363913,10.5194266180
1520603867614179026,-0.0229581965,-0.1388503450,0.6017453933,0.1768847527,1.1547631318,10.4590430870
1520603867619196026,-0.0209181558,-0.1181663550,0.6037933198,0.1576436693,1.0936084688,10.3942099428
1520603867624211026,-0.0201339075,-0.0977778838,0.6071940864,0.1564411016,1.0588334902,10.3210404895
1520603867629228026,-0.0193512783,-0.0753351524,0.6051994966,0.2069489456,1.0492364331,10.2217759958
1520603867634244026,-0.0188151572,-0.0511522250,0.6061947169,0.1636565079,0.9772913794,10.1339445976
1520603867639260026,-0.0165234608,-0.0284204321,0.6052817335,0.1408077214,0.9149378569,10.0958770489
1520603867644276026,-0.0197602486,-0.0048130094,0.6030329578,0.1925181330,0.8357905616,10.0199115508
1520603867649292026,-0.0227546643,0.0138482590,0.5980404639,0.1660616433,0.7842295839,9.9446799866
1520603867654307026,-0.0292745673,0.0269711147,0.5932828114,0.1961258361,0.7194736596,9.8514789882
1520603867659324026,-0.0327761205,0.0392078865,0.5933827151,0.2923312532,0.6571108648,9.7750640323
1520603867664339026,-0.0380561206,0.0383367643,0.5914920258,0.3921443734,0.5899512273,9.6788621914
1520603867669356026,-0.0448483163,0.0330891845,0.5914646118,0.4570830299,0.4796252507,9.5981497647
1520603867674371026,-0.0554179568,0.0223052788,0.5908608682,0.5220216864,0.4028752059,9.5336746119
1520603867679386026,-0.0652400401,0.0053960374,0.5926439527,0.5593012855,0.3668980898,9.4403753190
1520603867684404026,-0.0758183957,-0.0132618065,0.5944150989,0.6230373742,0.3321180535,9.3607630729
1520603867689420026,-0.0858988150,-0.0345382721,0.5948125744,0.6987991402,0.2913413786,9.2938232065
1520603867694435026,-0.0997481443,-0.0552327170,0.5949509510,0.6735452182,0.2313863242,9.2104531149
1520603867699451026,-0.1133462180,-0.0756342221,0.5945499922,0.7084196819,0.2217904847,9.1218000825
1520603867704467026,-0.1261870902,-0.0916559227,0.5909344288,0.6591144056,0.1894175333,9.0700150840
1520603867709483026,-0.1405283615,-0.1012633839,0.5857472981,0.6025937231,0.2182013055,8.9810520731
1520603867714499026,-0.1526020000,-0.1050357125,0.5781655157,0.5701243949,0.2002167280,8.9360620355
1520603867719515026,-0.1671843535,-0.1035546347,0.5671113193,0.5244268218,0.1882288828,8.9190863617
1520603867724530026,-0.1822658272,-0.0988656102,0.5550003268,0.5292370926,0.1690422614,8.8737346367
1520603867729548026,-0.1945808067,-0.0897923514,0.5383182663,0.4799318164,0.1282753271,8.8393899829
1520603867734563026,-0.2066461495,-0.0783718925,0.5157015141,0.3945495088,0.1198879940,8.7983920449
1520603867739578026,-0.2209722996,-0.0654917549,0.4917473483,0.3969546442,0.1378749130,8.7611624882
1520603867744595026,-0.2297680643,-0.0485176846,0.4632147576,0.3596750451,0.1642589058,8.7185002932
1520603867749613026,-0.2393157927,-0.0312576241,0.4365796115,0.3356236908,0.1714556215,8.7140788024
1520603867754626026,-0.2498712216,-0.0148677404,0.4083163875,0.3837263994,0.2098243687,8.7158974692
1520603867759644026,-0.2616809883,0.0032706865,0.3797982899,0.4570830299,0.1966281108,8.7244934752
1520603867764660026,-0.2712373417,0.0135346046,0.3541919732,0.4462599204,0.1690487240,8.7188149957
1520603867769675026,-0.2795399804,0.0188323663,0.3334153566,0.4751215456,0.1954275654,8.7731291147
1520603867774690026,-0.2893495811,0.0229559864,0.3156086529,0.4426522173,0.1930318134,8.7711232020
1520603867779707026,-0.2981601454,0.0227099608,0.2974961901,0.4655010038,0.2409956508,8.7522597291
1520603867784723026,-0.3077247002,0.0201223656,0.2831549853,0.4330316756,0.2697775498,8.7676555729
1520603867789739026,-0.3172952377,0.0134568438,0.2682415656,0.3957520765,0.2793735766,8.7598740673
1520603867794754026,-0.3243534102,0.0035746935,0.2578983049,0.3717007222,0.3573195773,8.7774643207
1520603867799771026,-0.3309068288,-0.0045582243,0.2472969034,0.3211928783,0.3513278089,8.7477460369
1520603867804785026,-0.3392259804,-0.0167675725,0.2353149162,0.3091672012,0.3645192902,8.7617959522
1520603867809803026,-0.3445298597,-0.0313162851,0.2268266404,0.2779004406,0.3789114104,8.7957884263
1520603867814818026,-0.3493265271,-0.0444166192,0.2215950973,0.2382157061,0.3933041863,8.7880256534
1520603867819834026,-0.3553761249,-0.0548949850,0.2163858955,0.2370131384,0.3777154545,8.7857282719
1520603867824849026,-0.3581567758,-0.0659643094,0.2146832769,0.1913155653,0.4041001029,8.8256602331
1520603867829865026,-0.3616874067,-0.0738272426,0.2124654205,0.1720744819,0.4364783928,8.8281402297
1520603867834883026,-0.3647127114,-0.0793574458,0.2097233236,0.1299846119,0.4184945646,8.8587831896
1520603867839898026,-0.3669812576,-0.0819698662,0.2056493279,0.0915024451,0.4532726340,8.8916638713
1520603867844914026,-0.3682405627,-0.0822537302,0.2026734336,0.0722613617,0.4880492048,8.9173844083
1520603867849931026,-0.3672328975,-0.0781637550,0.1989150474,0.0794767680,0.5528022257,8.9776825193
1520603867854945026,-0.3659709422,-0.0720347180,0.1954423019,0.1023255545,0.5731858334,9.0541417454
1520603867859962026,-0.3657098306,-0.0641643236,0.1944196749,0.0999204191,0.6367404632,9.0634003322
1520603867864978026,-0.3621784940,-0.0551329386,0.1955642400,0.1179589348,0.7206788879,9.0584943268
1520603867869994026,-0.3601556952,-0.0455142763,0.1948222303,0.1420102891,0.7386641210,9.1628356414
1520603867875009026,-0.3551097049,-0.0324072877,0.1976183937,0.1035281222,0.7782387521,9.1771173425
1520603867880026026,-0.3490645803,-0.0198651921,0.1939151424,0.0915024451,0.7758414079,9.2539382327
1520603867885041026,-0.3410063873,-0.0076238914,0.1939935769,0.0818819034,0.7530584891,9.3632956223
1520603867890057026,-0.3352101465,0.0049100931,0.1932667972,0.0097278406,0.7398735641,9.3884158115
1520603867895074026,-0.3263978807,0.0174438021,0.1930755087,-0.0059055396,0.7206885349,9.3943974064
1520603867900090026,-0.3158325448,0.0276565937,0.1893460717,-0.0359697325,0.7170934551,9.4609357462
1520603867905105026,-0.3075323758,0.0346603557,0.1866785650,-0.0287543262,0.7039023485,9.5317691598
1520603867910123026,-0.2992360330,0.0393352268,0.1831816358,-0.0528056804,0.7003068004,9.5750060953
1520603867915137026,-0.2899332640,0.0445918039,0.1802283777,-0.0828698733,0.7338850738,9.6171031625
1520603867920154026,-0.2806354229,0.0460596537,0.1775167654,-0.1129340661,0.6883200792,9.6348723832
1520603867925169026,-0.2715936754,0.0443236321,0.1742400741,-0.1285674464,0.6511479436,9.6280879347
1520603867930185026,-0.2600401666,0.0434707614,0.1679893800,-0.1514162329,0.6343617572,9.6236781257
1520603867935202026,-0.2502417508,0.0437747269,0.1647268501,-0.1838855611,0.6223728818,9.6809509094
1520603867940217026,-0.2396954642,0.0402939026,0.1603518364,-0.2127471863,0.6055871637,9.6986803608
1520603867945234026,-0.2256309430,0.0394485723,0.1516615620,-0.2500267854,0.5708149949,9.7246442954
1520603867950250026,-0.2160911258,0.0356788834,0.1462040085,-0.2945217907,0.5684201795,9.7622683277
1520603867955264026,-0.2055518685,0.0307578904,0.1355953237,-0.3402193638,0.5756185811,9.8301104531
1520603867960281026,-0.1950130934,0.0261311956,0.1239066784,-0.3197757127,0.5984006569,9.8810235837
1520603867965297026,-0.1771893808,0.0191748229,0.1127278053,-0.3402193638,0.6163893555,9.9218800680
1520603867970313026,-0.1643960906,0.0081334557,0.1028798729,-0.3414219315,0.6199868704,10.0229947890
1520603867975328026,-0.1536155197,-0.0034863693,0.0911374069,-0.2885089522,0.6463638387,10.0515076399
1520603867980345026,-0.1408261029,-0.0180272646,0.0823449811,-0.2704704365,0.6727435231,10.0954678089
1520603867985362026,-0.1250202258,-0.0340333708,0.0770529358,-0.2476216499,0.6523563564,10.1847503760
1520603867990377026,-0.1119764366,-0.0485843657,0.0720476858,-0.2247728634,0.6499562960,10.2833125548
1520603867995393026,-0.0981727252,-0.0593499801,0.0681521193,-0.2560396239,0.6463613099,10.3149982810
1520603868000410026,-0.0871326422,-0.0701188628,0.0650733245,-0.2909140876,0.6151863750,10.4083396468
1520603868005424026,-0.0700526762,-0.0744749230,0.0620322361,-0.2788884105,0.5828086470,10.4593885024
1520603868010441026,-0.0564859228,-0.0753364757,0.0592949049,-0.2608498948,0.5480321698,10.4569225495
1520603868015457026,-0.0419050002,-0.0700807448,0.0574140292,-0.3690809889,0.4629016291,10.5580034077
1520603868020473026,-0.0280757708,-0.0619056365,0.0533924174,-0.4472478903,0.4089463980,10.5820597357
1520603868025488026,-0.0159994271,-0.0481905408,0.0477930358,-0.5230096562,0.3897660518,10.6571930768
1520603868030505026,-0.0046657637,-0.0271954978,0.0438739070,-0.5843406096,0.3885716880,10.7100876819
1520603868035521026,0.0044083273,-0.0026959855,0.0367391049,-0.6456715629,0.4725162943,10.8105471661
1520603868040537026,0.0162522019,0.0247133561,0.0315152210,-0.6889640006,0.5924337084,10.8550130845
1520603868045553026,0.0245829580,0.0579584795,0.0228252363,-0.7767514436,0.6883717795,10.9266647877
1520603868050569026,0.0286490671,0.0958604394,0.0155314848,-0.8416901001,0.7831089306,10.9829873927
1520603868055583026,0.0327200611,0.1378439680,0.0074572187,-0.8440952356,0.8238798923,10.9597281662
1520603868060600026,0.0350318731,0.1789490116,0.0007322799,-0.8753619961,0.8346745912,11.0739120811
1520603868065616026,0.0375899266,0.2171439506,-0.0073680859,-0.8380823970,0.8046931772,11.1281992237
1520603868070631026,0.0366237748,0.2530159046,-0.0189967989,-0.8188413136,0.7867045723,11.1628938015
1520603868075647026,0.0356470613,0.2801419522,-0.0290689292,-0.7947899593,0.7255465375,11.2126915267
1520603868080665026,0.0334006066,0.2958962266,-0.0365199671,-0.7286487351,0.6547921012,11.2063060199
1520603868085681026,0.0308906254,0.3037881194,-0.0459243829,-0.7130153548,0.6008295646,11.1806393074
1520603868090696026,0.0288675836,0.3017804195,-0.0581107761,-0.6576972401,0.5576562010,11.2068722820
1520603868095711026,0.0213072133,0.2936529353,-0.0708746779,-0.6071893961,0.4065605739,11.1774744075
1520603868100728026,0.0155017909,0.2793932251,-0.0785481595,-0.5434533073,0.2782475846,11.0874940743
1520603868105743026,0.0069097782,0.2496934224,-0.0879576061,-0.5169968176,0.1511366392,11.0187940198
1520603868110760026,-0.0024466456,0.2124180552,-0.0976939986,-0.5181993853,0.0132355842,10.9910487439
1520603868115776026,-0.0135631295,0.1742671167,-0.1071632474,-0.5302250625,-0.1246646279,10.8774101610
1520603868120792026,-0.0261987520,0.1297138691,-0.1199251545,-0.5699097970,-0.2577661241,10.7559011093
1520603868125807026,-0.0370754592,0.0848691977,-0.1324220058,-0.5927585836,-0.4112543188,10.6458695052
1520603868130824026,-0.0474519406,0.0397398946,-0.1473569268,-0.6372535889,-0.5311648957,10.4860436605
1520603868135840026,-0.0573220411,-0.0027674793,-0.1620022275,-0.7094076517,-0.6366836334,10.3845801978
1520603868140856026,-0.0689481911,-0.0406024635,-0.1806668803,-0.7442821154,-0.7326121511,10.2583395005
1520603868145872026,-0.0780492113,-0.0699884972,-0.1984600931,-0.8020053656,-0.8153483446,10.1439297762
1520603868150888026,-0.0911746549,-0.0984859270,-0.2221911788,-0.7996002302,-0.8777038340,10.0870221179
1520603868155902026,-0.1045357391,-0.1170836657,-0.2431407539,-0.8657414544,-0.9340582826,10.0179922177
1520603868160919026,-0.1168858140,-0.1289682400,-0.2680992534,-0.9487186266,-0.9280561179,9.9804432695
1520603868165935026,-0.1320011365,-0.1388018223,-0.2976363375,-1.0341009342,-0.8992700979,9.9068690512
1520603868170951026,-0.1450943229,-0.1404780354,-0.3263032714,-1.0785959396,-0.8117293816,9.8421367151
1520603868175966026,-0.1564207177,-0.1363251404,-0.3551995565,-1.1122678355,-0.7229903678,9.8307564861
1520603868180983026,-0.1662354540,-0.1315990837,-0.3803065533,-1.1315089190,-0.6798198139,9.7913887763
1520603868185999026,-0.1740329390,-0.1227972265,-0.4037628852,-1.1327114867,-0.5826893460,9.8296565154
1520603868191016026,-0.1788076285,-0.1107984276,-0.4236832673,-1.1940424400,-0.4831559142,9.8057513951
1520603868196031026,-0.1815666112,-0.0976456863,-0.4389992105,-1.2277143360,-0.3968151812,9.7746170574
1520603868201047026,-0.1855851656,-0.0859467178,-0.4556766651,-1.2277143360,-0.2936891048,9.8419208436
1520603868206062026,-0.1870808483,-0.0728160656,-0.4626080192,-1.1603705441,-0.2349364690,9.7831008651
1520603868211079026,-0.1843021262,-0.0605695481,-0.4652252426,-1.1086601324,-0.1725851944,9.7732395904
1520603868216094026,-0.1817689870,-0.0454151113,-0.4656554011,-1.0545445853,-0.1066366858,9.7482435262
1520603868221111026,-0.1719393961,-0.0288234780,-0.4577010565,-0.9932136320,-0.0766629519,9.7022937206
1520603868226126026,-0.1623623430,-0.0157402123,-0.4454441878,-0.9366929495,-0.0478879837,9.6959047990
1520603868231142026,-0.1495282217,-0.0119894412,-0.4297474287,-0.8404875324,-0.0526920382,9.6601087533
1520603868236160026,-0.1334127965,-0.0018458698,-0.4069736357,-0.7851694176,0.0144555171,9.6804234288
1520603868241175026,-0.1167960948,0.0068387906,-0.3834002539,-0.7394718445,0.0156510985,9.6288431334
1520603868246191026,-0.0979174880,0.0140601301,-0.3571367291,-0.6937742714,0.0768037010,9.5992851061
1520603868251207026,-0.0810469000,0.0215655106,-0.3284323344,-0.6228227764,0.1031792644,9.5892716307
1520603868256222026,-0.0601534725,0.0270167493,-0.2937989592,-0.5638969584,0.1859153643,9.5432937843
1520603868261239026,-0.0395112968,0.0336385266,-0.2610500461,-0.5614918230,0.2110971258,9.5327865224
1520603868266255026,-0.0181205446,0.0376439660,-0.2304869081,-0.5230096562,0.2290812351,9.5242594129
1520603868271271026,0.0050277547,0.0387282366,-0.1969732633,-0.4845274894,0.2554593273,9.4111311620
1520603868276287026,0.0271724896,0.0421482885,-0.1653337881,-0.4688941091,0.2686486543,9.4039932698
1520603868281302026,0.0465482800,0.0444119174,-0.1374857138,-0.4436401871,0.2350707556,9.3131329767
1520603868286319026,0.0656675377,0.0434731318,-0.1107438103,-0.4051580203,0.2302711968,9.2290887276
1520603868291335026,0.0852907614,0.0451642881,-0.0866882915,-0.3570553118,0.1894966760,9.1961202521
1520603868296350026,0.1034021933,0.0456973284,-0.0656148695,-0.3017371970,0.1691069805,9.0735765831
1520603868301365026,0.1157297102,0.0453634201,-0.0480544788,-0.2512293531,0.1547133617,8.9847760623
1520603868306381026,0.1298119633,0.0418249713,-0.0305218091,-0.1911009674,0.0887559554,8.9180129177
1520603868311398026,0.1383645445,0.0382879986,-0.0143316010,-0.1357828526,0.0275954854,8.7955090063
1520603868316414026,0.1454047183,0.0333022537,-0.0013962587,-0.0960981181,-0.0491525925,8.7115232124
1520603868321430026,0.1516837861,0.0251204532,0.0079989332,-0.0636287899,-0.1031164403,8.6124775600
1520603868326446026,0.1504223561,0.0184042766,0.0130905079,-0.0467928419,-0.1870575812,8.4961811476
1520603868331463026,0.1466425747,0.0093633236,0.0154635062,-0.0071081073,-0.2578099570,8.4714588487
1520603868336478026,0.1436130400,-0.0017141121,0.0167373591,0.0818819034,-0.3297653132,8.3532862955
1520603868341493026,0.1350524728,-0.0124928596,0.0145066064,0.1299846119,-0.4089123276,8.2773559126
1520603868346510026,0.1252339610,-0.0238526832,0.0114621034,0.2045438101,-0.4688751556,8.2476350672
1520603868351526026,0.1146604981,-0.0355020014,0.0076051398,0.2766978729,-0.5300369368,8.1668044673
1520603868356541026,0.1033332760,-0.0451031821,0.0005185872,0.2839132792,-0.6139773284,8.1470596435
1520603868361558026,0.0915012137,-0.0558679125,-0.0073875619,0.3488519357,-0.6415626158,8.0895094115
1520603868366574026,0.0784152134,-0.0631292366,-0.0179701594,0.4053726182,-0.6727446688,8.0750439492
1520603868371589026,0.0645788372,-0.0674755539,-0.0290702176,0.4618933007,-0.6907361772,8.0733492077
1520603868376605026,0.0517507808,-0.0691975597,-0.0406932267,0.4895523581,-0.7554919143,8.1242774697
1520603868381622026,0.0401859029,-0.0671361735,-0.0503958481,0.5484781760,-0.7842758738,8.1551098728
1520603868386638026,0.0253560377,-0.0615699832,-0.0635828217,0.5737320980,-0.8166546320,8.1630306465
1520603868391654026,0.0163062651,-0.0560022569,-0.0765099841,0.6531015671,-0.8526350263,8.1750767764
1520603868396670026,0.0052498420,-0.0475207445,-0.0896817277,0.7264581976,-0.8634330034,8.2324804897
1520603868401685026,-0.0057984894,-0.0343829072,-0.1006535347,0.7577249581,-0.8682320002,8.2902880333
1520603868406701026,-0.0155852733,-0.0197978529,-0.1078289175,0.7962071249,-0.8838238229,8.3561708783
1520603868411717026,-0.0251244514,-0.0069566368,-0.1166413808,0.8202584792,-0.9305921726,8.4489538978
1520603868416734026,-0.0371724033,0.0055769132,-0.1197699362,0.7913968541,-0.9185985205,8.5712482409
1520603868421749026,-0.0464589261,0.0166575372,-0.1239969245,0.8118405052,-0.8850241809,8.6279615672
1520603868426764026,-0.0559952972,0.0283186466,-0.1274073622,0.8070302343,-0.8514478744,8.6825964118
1520603868431781026,-0.0690499028,0.0373442620,-0.1265025393,0.8070302343,-0.7579149213,8.8045303185
1520603868436797026,-0.0798409294,0.0469498903,-0.1242447412,0.8262713177,-0.6907645562,8.9716262840
1520603868441814026,-0.0938978332,0.0556728009,-0.1192820860,0.7625352289,-0.6367982731,9.0872462832
1520603868446829026,-0.1107265984,0.0562242068,-0.1100478089,0.7661429321,-0.5984260606,9.2568467665
1520603868451845026,-0.1275567710,0.0559021875,-0.1010907470,0.7709532029,-0.5348719928,9.3415744800
1520603868456860026,-0.1446418532,0.0517869719,-0.0902682972,0.8190559115,-0.4773169989,9.3759144681
1520603868461878026,-0.1637347386,0.0464915904,-0.0743106339,0.8479175366,-0.4557347191,9.4337196963
1520603868466893026,-0.1793101891,0.0403219767,-0.0578250822,0.8996279482,-0.4257602359,9.4401600091
1520603868471908026,-0.1941295399,0.0370723312,-0.0434830670,0.9525409276,-0.4401540420,9.4233890034
1520603868476926026,-0.2076889230,0.0355678430,-0.0277773174,0.9417178182,-0.4857205351,9.4188902079
1520603868481941026,-0.2187268733,0.0393048902,-0.0104129441,0.9561486307,-0.5025096250,9.4141175422
1520603868486957026,-0.2267412714,0.0500414466,0.0051053613,0.9862128236,-0.5564732855,9.3209060197
1520603868491973026,-0.2367684750,0.0607852280,0.0176513956,0.9910230944,-0.5792573282,9.2430177720
1520603868496988026,-0.2450292831,0.0770667331,0.0299658555,0.9910230944,-0.6080366984,9.2186408131
1520603868502004026,-0.2497683008,0.0956792360,0.0428326578,1.0619745895,-0.6104405052,9.2156282656
1520603868507019026,-0.2535094230,0.1102185767,0.0535021029,1.0968490531,-0.6068458000,9.1862317120
1520603868512037026,-0.2552409034,0.1238830946,0.0647022367,1.1353312200,-0.5924591121,9.1823566863
1520603868517052026,-0.2564691236,0.1390091026,0.0742892771,1.2122955536,-0.5648848766,9.1943642514
1520603868522067026,-0.2549313081,0.1512034092,0.0908831460,1.2844496164,-0.5265180026,9.1645709303
1520603868527084026,-0.2564056091,0.1636777208,0.1112724812,1.3505908406,-0.4929472221,9.1999208733
1520603868532101026,-0.2536065519,0.1779056555,0.1303144911,1.3217292155,-0.4617673232,9.2152792632
1520603868537116026,-0.2495524551,0.1900900202,0.1509618812,1.3409702989,-0.4185997665,9.2452656289
1520603868542132026,-0.2437430104,0.1978970218,0.1742781170,1.3012855644,-0.3934147269,9.2642216429
1520603868547148026,-0.2396934064,0.2048277238,0.1981320423,1.2183083922,-0.3490400687,9.3079853526
1520603868552165026,-0.2321257010,0.2138089655,0.2184778984,1.1184952720,-0.3118589418,9.3937571314
1520603868557180026,-0.2260708107,0.2166596149,0.2428380585,1.0487463446,-0.3190483520,9.4723066856
1520603868562197026,-0.2167496041,0.2203915253,0.2650344533,0.9489332245,-0.2962569102,9.5790110877
1520603868567212026,-0.2099449886,0.2232563103,0.2842528413,0.8070302343,-0.2878518754,9.6710313274
1520603868572227026,-0.2021390042,0.2237925981,0.3026399399,0.6386707545,-0.2758473587,9.7795755857
1520603868577244026,-0.1910681108,0.2243367218,0.3185860582,0.4811343841,-0.2458565787,9.8415112002
1520603868582260026,-0.1815121690,0.2243186102,0.3266846995,0.3596750451,-0.2062754851,9.9333020512
1520603868587276026,-0.1739701815,0.2216772502,0.3347670670,0.2442285447,-0.1738897023,9.9913392182
1520603868592293026,-0.1646763550,0.2161336605,0.3387657480,0.1732770496,-0.1858755806,10.0780401625
1520603868597308026,-0.1556406880,0.2065149596,0.3411104972,0.1131486640,-0.2002605826,10.1042066144
1520603868602325026,-0.1461106445,0.1931186549,0.3396377703,0.0614382523,-0.1966591340,10.1418950303
1520603868607339026,-0.1373441730,0.1739001916,0.3359576147,0.0325766272,-0.2410250818,10.1689485282
1520603868612356026,-0.1295881737,0.1517718598,0.3306338198,0.0698562263,-0.2614133725,10.1848755656
1520603868617372026,-0.1220866880,0.1261417163,0.3271776359,0.1071358254,-0.2746068206,10.1438505332
1520603868622387026,-0.1176068099,0.0981887846,0.3201921713,0.0614382523,-0.3189714572,10.1687436139
1520603868627404026,-0.1103633897,0.0708248041,0.3113121976,0.0518177106,-0.3429535164,10.1525906258
1520603868632419026,-0.1068958225,0.0420169927,0.2970171914,0.0614382523,-0.3729327762,10.0688518541
1520603868637435026,-0.1011766844,0.0059261826,0.2823918617,0.0626408200,-0.3417552189,9.9944325331
1520603868642451026,-0.0957161410,-0.0327748033,0.2631477108,0.0409946012,-0.3141733033,9.9492927151
1520603868647468026,-0.0930149490,-0.0647611880,0.2388194527,0.0878947420,-0.2901941475,9.8895434895
1520603868652484026,-0.0878026112,-0.0961550778,0.2112444228,0.1744796173,-0.2638198017,9.8793778483
1520603868657499026,-0.0818197936,-0.1164811593,0.1856462913,0.2742927375,-0.2446413287,9.8330640050
1520603868662515026,-0.0738198618,-0.1347798731,0.1649298137,0.3548647743,-0.1894871445,9.8868467425
1520603868667532026,-0.0620382199,-0.1452148270,0.1461601798,0.4282214047,-0.1511203642,9.9430403689
1520603868672546026,-0.0520094716,-0.1530367504,0.1306603715,0.4474624882,-0.1223424926,10.0474179798
1520603868677563026,-0.0389541915,-0.1562106370,0.1208719957,0.4354368110,-0.0659819561,10.2055316492
1520603868682579026,-0.0211240534,-0.1576270615,0.1083826317,0.3873341025,0.0023727944,10.3198233066
1520603868687595026,-0.0037985320,-0.1587442856,0.0929204194,0.3284082846,0.0755249496,10.4411884959
1520603868692611026,0.0165457353,-0.1604562090,0.0823179863,0.2237848935,0.1199012937,10.6129987315
1520603868697628026,0.0389085320,-0.1563403827,0.0720268271,0.1756821850,0.1846586230,10.7993468221
1520603868702642026,0.0607656495,-0.1551415123,0.0627965541,0.1119460962,0.2745991187,10.9312017565
1520603868707658026,0.0861371204,-0.1577336330,0.0551541222,-0.0035004042,0.3237728674,11.0415190307
1520603868712675026,0.1135216596,-0.1606265486,0.0512933759,-0.0708441961,0.3609514655,11.1839198268
1520603868717691026,0.1378851556,-0.1681857118,0.0484848446,-0.1213520401,0.3945313311,11.2901337975
1520603868722706026,0.1634998218,-0.1798244945,0.0459134023,-0.1886958320,0.4472987546,11.3860336340
1520603868727723026,0.1843344863,-0.1955452597,0.0435902505,-0.2223677280,0.4065306027,11.4317247473
1520603868732739026,0.2066700361,-0.2165110841,0.0414948288,-0.2416088114,0.3921424162,11.3958995977
1520603868737755026,0.2219601938,-0.2462306707,0.0428628793,-0.2740781396,0.3309887834,11.3718702475
1520603868742772026,0.2317074403,-0.2843931050,0.0406596317,-0.2043292123,0.2398486790,11.2376336692
1520603868747787026,0.2386932106,-0.3222732505,0.0414397459,-0.2103420508,0.1750955644,11.1017844962
1520603868752802026,0.2436661283,-0.3613168081,0.0411325180,-0.1995189414,0.1007480152,10.9123221852
1520603868757817026,0.2443709686,-0.3977410355,0.0413943240,-0.1694547486,0.0779620057,10.8004859566
1520603868762836026,0.2415695905,-0.4260107882,0.0428070940,-0.1574290715,0.0467834181,10.6504827388
1520603868767851026,0.2367561516,-0.4548611840,0.0431369681,-0.0672364930,0.0012090575,10.5078677320
1520603868772866026,0.2274339333,-0.4755662400,0.0478662239,-0.0239440553,-0.0011925951,10.3528835428
1520603868777882026,0.2166080151,-0.4927730872,0.0518133194,0.0506151429,0.0059964405,10.2975300474
1520603868782898026,0.2052898843,-0.5015263378,0.0544730884,0.1047306900,0.0635509661,10.2737043125
1520603868787914026,0.1902192465,-0.5003856462,0.0615441774,0.1143512317,0.1498883273,10.2514457445
1520603868792930026,0.1789240306,-0.4948727099,0.0686416119,0.0939075805,0.2614099789,10.2410766863
1520603868797947026,0.1693987307,-0.4809067478,0.0749886111,0.1444154245,0.3225622068,10.2614440288
1520603868802962026,0.1606442596,-0.4567522300,0.0851996606,0.1612513725,0.3777213550,10.3309550056
1520603868807978026,0.1523938837,-0.4308462943,0.0943409316,0.1456179922,0.5000348958,10.4274458470
1520603868812994026,0.1499310806,-0.3991096752,0.1032453838,0.0999204191,0.5947705483,10.5021754744
1520603868818011026,0.1492299646,-0.3656247881,0.1124304534,0.0181458146,0.7074961170,10.6272109034
1520603868823025026,0.1490312307,-0.3306754972,0.1189202459,-0.0528056804,0.8178225619,10.7695754850
1520603868828042026,0.1520975350,-0.2965968947,0.1245856642,-0.0347671647,0.8729816165,10.8843983710
1520603868833058026,0.1559160187,-0.2642684892,0.1310479814,-0.0985032535,1.0096885887,10.9964512539
1520603868838074026,0.1577314116,-0.2278673155,0.1397095228,-0.2115446185,1.1056286266,11.0241872930
1520603868843091026,0.1638160305,-0.1914549984,0.1448460332,-0.2632550302,1.1655896752,11.0525235984
1520603868848106026,0.1696456536,-0.1582501949,0.1507701941,-0.3041423324,1.2207533191,11.0342734774
1520603868853123026,0.1739645826,-0.1262071496,0.1550649876,-0.3871195046,1.2975047687,11.0117634095
1520603868858138026,0.1797797786,-0.1023208235,0.1587536426,-0.4123734266,1.2687273654,10.9376600668
1520603868863153026,0.1830767055,-0.0828084351,0.1632252563,-0.4159811297,1.2339525741,10.8366225688
1520603868868170026,0.1848661021,-0.0635902073,0.1685090849,-0.3931323432,1.1428161224,10.7167882152
1520603868873185026,0.1856449794,-0.0484524852,0.1740342031,-0.3534476087,1.0288946914,10.6142443676
1520603868878201026,0.1844130231,-0.0347775723,0.1814457609,-0.3774989629,0.8885971351,10.5169951893
1520603868883218026,0.1836860402,-0.0193541554,0.1888697237,-0.3835118015,0.7626878589,10.4044485316
1520603868888233026,0.1794386823,-0.0024613540,0.1911709642,-0.3462322024,0.6691520024,10.3239889505
1520603868893249026,0.1734298607,0.0141459296,0.1910383355,-0.3967400463,0.5732247023,10.2327647376
1520603868898266026,0.1664197132,0.0327888689,0.1922758648,-0.4809197862,0.5060793948,10.1825152406
1520603868903281026,0.1589044629,0.0505618282,0.1918843829,-0.4640838383,0.4497184836,10.0940833882
1520603868908297026,0.1508801150,0.0677707608,0.1844551950,-0.4785146508,0.3825677438,10.0908029000
1520603868913313026,0.1405946029,0.0843916677,0.1786490368,-0.5181993853,0.3453974815,10.0505503780
1520603868918330026,0.1262879136,0.1007196147,0.1728481231,-0.5650995262,0.3154226236,9.9766588956
1520603868923344026,0.1114721618,0.1132637366,0.1653959673,-0.5374404688,0.3058273461,9.9148054044
1520603868928361026,0.0938916368,0.1246375952,0.1592927827,-0.5663020939,0.2806476450,9.8500308205
1520603868933377026,0.0778171916,0.1357250306,0.1515612992,-0.5975688544,0.2758535185,9.7283147141
1520603868938393026,0.0612300301,0.1395283843,0.1435046262,-0.6348484535,0.2746572815,9.6543015271
1520603868943409026,0.0433862452,0.1442097699,0.1338336807,-0.6649126463,0.2422828316,9.5755999368
1520603868948426026,0.0275460371,0.1459875675,0.1206196739,-0.6564946723,0.1979139803,9.4930490462
1520603868953442026,0.0084363961,0.1471871435,0.1052429211,-0.7130153548,0.1547493271,9.4611012494
1520603868958457026,-0.0114314539,0.1448883531,0.0903819833,-0.6829511620,0.1007856665,9.4329697883
1520603868963474026,-0.0305509038,0.1396811117,0.0736035932,-0.6540895369,0.0959868570,9.3571541873
1520603868968489026,-0.0509280828,0.1324285873,0.0587057963,-0.6276330472,0.1043787794,9.3708342181
1520603868973504026,-0.0675438672,0.1219846933,0.0391772645,-0.6035816930,0.1331562764,9.3473291738
1520603868978521026,-0.0803876248,0.1106557392,0.0242343428,-0.5169968176,0.1991022562,9.2708827390
1520603868983537026,-0.0944879628,0.0999119756,0.0082160173,-0.4845274894,0.2398705017,9.2345004824
1520603868988553026,-0.1045712596,0.0862552136,-0.0075614608,-0.4340196454,0.2566545340,9.2386410751
1520603868993569026,-0.1103761841,0.0775551192,-0.0238501724,-0.3943349109,0.2902273750,9.2428706426
1520603868998585026,-0.1159330715,0.0641827727,-0.0363872777,-0.3690809889,0.3321953230,9.2309624700
1520603869003601026,-0.1194765691,0.0557771342,-0.0534896045,-0.3714861244,0.3729662847,9.1960818039
1520603869008617026,-0.1210060694,0.0497019027,-0.0700367886,-0.3318013898,0.4269245130,9.2072643563
1520603869013633026,-0.1210238209,0.0450776287,-0.0841407445,-0.2824961136,0.4305180942,9.1637816147
1520603869018652026,-0.1200364595,0.0425029098,-0.1017481024,-0.2283805665,0.4353104412,9.0784137011
1520603869023663026,-0.1152789139,0.0396346410,-0.1180119548,-0.2367985405,0.4628913266,8.9994429528
1520603869028680026,-0.1059990910,0.0353083081,-0.1332131400,-0.1935061029,0.4401042867,9.0025302201
1520603869033697026,-0.0982311501,0.0289460634,-0.1500503618,-0.1814804257,0.3801463290,8.9792287574
1520603869038712026,-0.0909596909,0.0272465026,-0.1671216267,-0.2560396239,0.3393813615,8.9230491747
1520603869043729026,-0.0821792078,0.0261288447,-0.1836501540,-0.2909140876,0.2962150224,8.8548642243
1520603869048744026,-0.0728955978,0.0258877226,-0.2009845832,-0.3245859836,0.2770313981,8.8958857137
1520603869053759026,-0.0648752485,0.0239123697,-0.2237409352,-0.3907272078,0.2434606175,8.8361307476
1520603869058776026,-0.0550923300,0.0251458495,-0.2475582839,-0.3642707181,0.2422594166,8.8207665343
1520603869063792026,-0.0415399370,0.0234538491,-0.2665350382,-0.3330039576,0.2362612793,8.8227923375
1520603869068808026,-0.0292442145,0.0214692435,-0.2852411361,-0.3462322024,0.2470545734,8.8577748877
1520603869073823026,-0.0184600721,0.0153988363,-0.3018111896,-0.3378142284,0.2710367262,8.9053174676
1520603869078840026,-0.0086815680,0.0078660136,-0.3164966704,-0.3233834158,0.2518493555,8.9667893459
1520603869083856026,-0.0001591661,-0.0008393953,-0.3287537969,-0.2584447593,0.2878185106,8.9649600488
1520603869088873026,0.0060996489,-0.0130517743,-0.3375163032,-0.2127471863,0.3070011983,9.0109823054
1520603869093888026,0.0111010445,-0.0264323689,-0.3454737306,-0.1634419100,0.3369758688,9.0290674678
1520603869098904026,0.0145969759,-0.0392358842,-0.3515300902,-0.1021109567,0.3537590581,9.0749398974
1520603869103919026,0.0185986256,-0.0508787636,-0.3556846696,-0.0167286490,0.3753369359,9.1182492605
1520603869108936026,0.0243650790,-0.0610764144,-0.3552321204,0.0061201375,0.3909239818,9.1493895498
1520603869113952026,0.0261161614,-0.0677812115,-0.3539337890,-0.0191337845,0.3741379828,9.1752188937
1520603869118968026,0.0248490665,-0.0747712903,-0.3553375389,-0.0491979773,0.3297721286,9.2557427185
1520603869123982026,0.0240834715,-0.0817575300,-0.3580949517,-0.0576159513,0.3129848183,9.3371911015
1520603869128999026,0.0275952845,-0.0831985056,-0.3635235192,-0.1081237952,0.3153870329,9.3795175575
1520603869134016026,0.0243195670,-0.0858047640,-0.3700305611,-0.1730624517,0.3453706011,9.4440383146
1520603869139031026,0.0230482655,-0.0895612041,-0.3819611470,-0.2103420508,0.3633606109,9.5071394047
