#timestamp [ns],w_RS_S_x [rad s^-1],w_RS_S_y [rad s^-1],w_RS_S_z [rad s^-1],a_RS_S_x [m s^-2],a_RS_S_y [m s^-2],a_RS_S_z [m s^-2]
1520616724369868714,0.0060366580,-0.0520201494,-0.0418298506,0.0518177106,-0.3981139759,10.1514822714
1520616724374883714,0.0024763260,-0.0832004006,-0.0417906407,0.0482100075,-0.3429532354,10.1991114991
1520616724379899714,-0.0010812813,-0.1135115973,-0.0398509402,0.0830844711,-0.2638126836,10.1940463003
1520616724384916714,-0.0026257302,-0.1432457931,-0.0354756144,0.1059332577,-0.1990608803,10.1844636082
1520616724389931714,-0.0024034817,-0.1694921550,-0.0275597819,0.0830844711,-0.1307080966,10.1532414652
1520616724394946714,-0.0026806161,-0.1922370005,-0.0215101602,0.0109304084,-0.0647497537,10.1271501440
1520616724399962714,-0.0024469278,-0.2097403698,-0.0140687270,-0.0528056804,-0.0431602621,10.0185079322
1520616724404976714,0.0008146644,-0.2185024786,-0.0060251101,-0.1249597432,0.0251963616,9.8761998769
1520616724409993714,0.0050962318,-0.2173614903,0.0037155002,-0.1586316392,0.0395886692,9.7219484404
1520616724415008714,0.0109031871,-0.2045703576,0.0157066008,-0.2428113791,0.0060192935,9.6356397393
1520616724420022714,0.0169778089,-0.1792474064,0.0269811896,-0.3979426141,-0.0851032965,9.4687276880
1520616724425040714,0.0238098908,-0.1513016992,0.0382743860,-0.5470610105,-0.1462478443,9.2680257033
1520616724430054714,0.0313988723,-0.1169262978,0.0425808968,-0.6649126463,-0.2289793548,9.2797127788
1520616724435069714,0.0364650567,-0.0889586984,0.0454904375,-0.7082050840,-0.3596822892,9.3662602714
1520616724440085714,0.0422709731,-0.0706028508,0.0469724867,-0.6023791253,-0.4556217652,9.4978081844
1520616724445100714,0.0468037688,-0.0630221672,0.0459397023,-0.5506687136,-0.4939982861,9.6565560076
1520616724450116714,0.0520694359,-0.0691282482,0.0418250279,-0.5169968176,-0.5371699638,9.7492418785
1520616724455131714,0.0548101104,-0.0816348470,0.0336079244,-0.5013634374,-0.5935307813,9.8816290825
1520616724460147714,0.0560332693,-0.1011345366,0.0250697213,-0.4256016715,-0.5851426989,10.0249893289
1520616724465161714,0.0567478441,-0.1261758283,0.0183840343,-0.3245859836,-0.5036090175,10.1564109999
1520616724470177714,0.0557010806,-0.1538446404,0.0133048819,-0.2584447593,-0.4352631647,10.1545384255
1520616724475194714,0.0579235306,-0.1809345026,0.0101179296,-0.2957243585,-0.4088791719,10.1502269810
1520616724480208714,0.0581421019,-0.2030708871,0.0067019577,-0.3053449002,-0.4040818610,10.1898288385
1520616724485224714,0.0563553045,-0.2190780576,-0.0007217842,-0.2536344885,-0.3681116756,10.0695896136
1520616724490239714,0.0580983540,-0.2248781070,-0.0107797111,-0.3113577387,-0.3429252311,9.9213724741
1520616724495255714,0.0585930051,-0.2245588452,-0.0210591655,-0.3907272078,-0.3860881048,9.9047549447
1520616724500271714,0.0563300611,-0.2175308095,-0.0342583598,-0.4388299163,-0.4508379412,9.8216119265
1520616724505285714,0.0523192535,-0.1988327849,-0.0530468275,-0.4376273486,-0.5611589538,9.6683047987
1520616724510301714,0.0458035611,-0.1710889843,-0.0769020843,-0.4773120831,-0.7578148925,9.5340741386
1520616724515317714,0.0357726372,-0.1395512789,-0.1034273659,-0.4977557342,-0.9053075724,9.5367412412
1520616724520331714,0.0214649286,-0.1103412244,-0.1318563191,-0.4280068069,-1.0336210299,9.5698896419
1520616724525347714,0.0084009141,-0.0895764584,-0.1619753508,-0.2319882697,-1.0816019134,9.5889470824
1520616724530363714,-0.0074295006,-0.0708546524,-0.1912931724,-0.0684390607,-1.0456404385,9.6628594716
1520616724535378714,-0.0240269766,-0.0655535839,-0.2144893002,0.0878947420,-0.9005566231,9.6797906275
1520616724540395714,-0.0366086934,-0.0663809416,-0.2336813919,0.2742927375,-0.7974450639,9.7313344024
1520616724545409714,-0.0451725027,-0.0745146471,-0.2442790596,0.4546778944,-0.6415708579,9.7747502441
1520616724550425714,-0.0512228023,-0.0846979861,-0.2508387677,0.5412627698,-0.4832910655,9.7842124228
1520616724555439714,-0.0557624588,-0.0963536825,-0.2514603819,0.5761372334,-0.2974270160,9.7813674407
1520616724560456714,-0.0562790994,-0.1097714079,-0.2464213384,0.6182271034,-0.1667239880,9.7738574420
1520616724565471714,-0.0542721548,-0.1176620407,-0.2375570809,0.6170245357,-0.0647969583,9.7330947148
1520616724570486714,-0.0509930188,-0.1174087115,-0.2229514468,0.6314553482,0.0287348708,9.6549994008
1520616724575502714,-0.0444399570,-0.1113234982,-0.2093896021,0.5039831707,0.0707147136,9.5504441100
1520616724580518714,-0.0376281553,-0.0976527190,-0.1992875204,0.4101828891,0.0719211595,9.4630329946
1520616724585532714,-0.0300581447,-0.0804835734,-0.1897012537,0.2610644926,0.0203697351,9.3494824517
1520616724590548714,-0.0222313741,-0.0571857845,-0.1835858656,0.1372000182,-0.0899415369,9.2950127419
1520616724595564714,-0.0169172312,-0.0303777973,-0.1828500512,-0.0756544670,-0.2614020396,9.3146839117
1520616724600579714,-0.0095882910,0.0022703230,-0.1864022431,-0.2524319208,-0.4268696500,9.2909987568
1520616724605594714,-0.0092996227,0.0360994354,-0.1966961219,-0.4195888329,-0.5623594992,9.3485408048
1520616724610611714,-0.0095284104,0.0635382874,-0.2146132602,-0.4797172185,-0.6846671393,9.4584868620
1520616724615626714,-0.0130394352,0.0804896586,-0.2339570916,-0.3883220723,-0.7698132276,9.6482719092
1520616724620640714,-0.0198324816,0.0854893422,-0.2520332727,-0.1995189414,-0.7818193364,9.7626603042
1520616724625660714,-0.0221165448,0.0764890436,-0.2645430990,-0.0660339253,-0.6607165499,9.8600251758
1520616724630672714,-0.0256609795,0.0625252461,-0.2735712875,0.0782742003,-0.5108352362,9.8619608335
1520616724635688714,-0.0282012381,0.0450528448,-0.2780287398,0.1961258361,-0.2830077344,9.9442659282
1520616724640703714,-0.0357718565,0.0141288950,-0.2655347280,0.4751215456,0.1414662464,10.3165089062
1520616724645719714,-0.0518697656,-0.0136346931,-0.2375792776,0.3175851752,0.1846475711,10.2122450726
1520616724650734714,-0.0533995483,-0.0431248524,-0.2156162455,0.2201771904,0.0419574471,10.0517943239
1520616724655749714,-0.0562018361,-0.0830995196,-0.1958952779,0.2911286855,0.2362126698,10.0485900047
1520616724660765714,-0.0476658892,-0.1003381209,-0.1773746417,0.1925181330,0.1330942735,9.8451130465
1520616724665781714,-0.0293422607,-0.1248472977,-0.1627154274,0.2285951644,0.1918493445,9.7796245358
1520616724670795714,-0.0162893997,-0.1458677551,-0.1458553677,0.2093540810,0.1163049963,9.7845340609
1520616724675811714,0.0030482215,-0.1645517612,-0.1300713750,0.2827107115,0.0743293683,9.7641045321
1520616724680827714,0.0231316397,-0.1908187540,-0.1116411237,0.3079646335,0.1462758268,9.8195714753
1520616724685842714,0.0452393934,-0.2074721834,-0.0920590608,0.1648590756,0.0635462831,9.6490477562
1520616724690858714,0.0623051595,-0.2346115975,-0.0747120617,0.0939075805,-0.0203880206,9.7695210356
1520616724695872714,0.0841575764,-0.2506663308,-0.0610770956,-0.0732493316,-0.1606744314,9.6922590622
1520616724700889714,0.1027433869,-0.2611619999,-0.0563218381,-0.2572421916,-0.2673835991,9.7789905157
1520616724705904714,0.1198034685,-0.2795016037,-0.0605518181,-0.3534476087,-0.3465193742,9.8601920295
1520616724710920714,0.1414011014,-0.2853004309,-0.0682117031,-0.4568684320,-0.4664253618,9.8682884620
1520616724715934714,0.1579673593,-0.2902052208,-0.0839719612,-0.4111708589,-0.4520392358,9.9096668201
1520616724720949714,0.1757964899,-0.2907402074,-0.0991601149,-0.3570553118,-0.4700305569,9.7604032065
1520616724725966714,0.1951412857,-0.2866175498,-0.1124216783,-0.2728755719,-0.4076818110,9.6921186976
1520616724730981714,0.2180136779,-0.2763780810,-0.1242903616,-0.1249597432,-0.2937749910,9.5325163106
1520616724735996714,0.2373820040,-0.2576985803,-0.1328414905,-0.0624262221,-0.2050434700,9.4016609937
1520616724741012714,0.2587667895,-0.2355260483,-0.1397464008,0.0806793357,-0.1415001731,9.2863160095
1520616724746027714,0.2791537265,-0.2081097171,-0.1463388827,0.2189746227,-0.1499049269,9.1943308850
1520616724751043714,0.2980388805,-0.1827628055,-0.1421222901,0.3175851752,-0.1163366752,9.2003111926
1520616724756058714,0.3139027248,-0.1632520503,-0.1352390996,0.3957520765,-0.1619100992,9.3262684898
1520616724761074714,0.3259852979,-0.1516065119,-0.1297616609,0.4125880245,-0.1703053934,9.4539486394
1520616724766089714,0.3358005008,-0.1460896759,-0.1210801559,0.4173982953,-0.1583143638,9.4724844290
1520616724771104714,0.3413481557,-0.1370771709,-0.1126345854,0.4258162693,-0.1990857938,9.5154415775
1520616724776121714,0.3441331112,-0.1254367323,-0.1065987862,0.3777135608,-0.1667052560,9.5577153899
1520616724781136714,0.3461698039,-0.1088394099,-0.1018765239,0.2923312532,-0.1714951678,9.5353082472
1520616724786151714,0.3449356090,-0.0948643714,-0.0977092937,0.1937207007,-0.1798814707,9.5723027098
1520616724791166714,0.3396774692,-0.0817585058,-0.0959761783,0.1792898882,-0.1079319213,9.6200209122
1520616724796182714,0.3346742780,-0.0666157638,-0.0931457845,0.2237848935,-0.0371861018,9.6845988955
1520616724801198714,0.3301729749,-0.0541047553,-0.0868192352,0.3524596388,0.1474715018,9.7482464377
1520616724806212714,0.3229153313,-0.0419138946,-0.0702090310,0.4498676236,0.2889624853,9.7436739142
1520616724811228714,0.3164150538,-0.0294415521,-0.0498103613,0.5039831707,0.4352534023,9.7371938075
1520616724816244714,0.3104107288,-0.0225082324,-0.0283726801,0.5568961500,0.5024011449,9.7435861658
1520616724821258714,0.3044061293,-0.0196717785,-0.0004730206,0.6410758899,0.5767412950,9.7694236237
1520616724826275714,0.2973969461,-0.0180085408,0.0301250724,0.7132299527,0.6079133264,9.8128523878
1520616724831291714,0.2908821356,-0.0215863855,0.0593294869,0.7589275258,0.5983166439,9.8763348678
1520616724836306714,0.2810916389,-0.0324537655,0.0898371212,0.8082328020,0.6342870166,9.9071977671
1520616724841321714,0.2750656496,-0.0482790331,0.1224643293,0.8334867240,0.6510730157,9.9499349165
1520616724846336714,0.2652729065,-0.0617732444,0.1545752312,0.7998148280,0.6474782169,10.0223190913
1520616724851352714,0.2537084558,-0.0804948556,0.1798857373,0.7625352289,0.6055112055,9.9866964123
1520616724856367714,0.2461606110,-0.1006645299,0.2024722013,0.7228504944,0.6223022622,10.0033363238
1520616724861383714,0.2381158533,-0.1132431063,0.2194359353,0.6242399420,0.6175133806,9.9996522399
1520616724866398714,0.2278087122,-0.1226005851,0.2302057680,0.5111985769,0.5563660231,10.0170821669
1520616724871413714,0.2187623424,-0.1252397020,0.2350723884,0.4210059985,0.5419833625,10.0481898210
1520616724876430714,0.2084605880,-0.1234925178,0.2340226790,0.2718876021,0.4652499892,10.0357703583
1520616724881444714,0.1953947779,-0.1173567095,0.2259772565,0.1540359662,0.3813193383,10.0683771943
1520616724886460714,0.1795620500,-0.1097497645,0.2122666196,0.0373868980,0.2829989086,10.0905270618
1520616724891475714,0.1614643788,-0.1038890990,0.1974646611,-0.1502136652,0.1642986176,10.1401167173
1520616724896491714,0.1428596327,-0.0974283791,0.1761749807,-0.2151523217,0.0923552498,10.1338460870
1520616724901506714,0.1217514917,-0.0830976193,0.1535972614,-0.2175574571,0.0335975564,10.0932517563
1520616724906521714,0.0996413231,-0.0664361771,0.1310391937,-0.1417956912,0.0120071282,10.0878868100
1520616724911538714,0.0777790660,-0.0521049843,0.1081923286,-0.0852750087,-0.0107809419,10.1001424733
1520616724916553714,0.0544059306,-0.0421546197,0.0888320143,0.0145381115,0.0155923737,10.1340095468
1520616724921567714,0.0320269467,-0.0406554694,0.0699464554,0.1131486640,0.0059915702,10.1714098374
1520616724926583714,0.0114052864,-0.0435402380,0.0561646551,0.1901129976,-0.0491748835,10.1753630792
1520616724931599714,-0.0102235960,-0.0490529603,0.0442585353,0.2935338209,-0.0371915341,10.1627233114
1520616724936615714,-0.0300926888,-0.0563234985,0.0361234524,0.3837263994,0.0011739350,10.1583215815
1520616724941630714,-0.0492054270,-0.0638945955,0.0315018429,0.4161957276,0.0155610913,10.1696129524
1520616724946646714,-0.0670692806,-0.0764158235,0.0257579238,0.4234111339,0.0167596697,10.1567579692
1520616724951662714,-0.0816616704,-0.0842677916,0.0178791395,0.4402470819,0.1030964690,10.0658626776
1520616724956676714,-0.0954971332,-0.0918368211,0.0132477288,0.4871472227,0.1606515566,9.9712163918
1520616724961691714,-0.1035437962,-0.0944573334,0.0113488349,0.4751215456,0.1726438974,9.8074594514
1520616724966708714,-0.1098260004,-0.0932898861,0.0097461200,0.5160088478,0.2325977341,9.6791671776
1520616724971722714,-0.1130850953,-0.0865849513,0.0081800430,0.5580987177,0.3489110771,9.5775375507
1520616724976738714,-0.1135729169,-0.0781459234,0.0123036343,0.6290502128,0.4328453808,9.4280106725
1520616724981753714,-0.1052606181,-0.0670846309,0.0177836276,0.6603169733,0.5143844944,9.3462767491
1520616724986768714,-0.0951772664,-0.0493302747,0.0268285814,0.6627221088,0.5815361708,9.3485121439
1520616724991785714,-0.0860987219,-0.0342118849,0.0407252205,0.7998148280,0.5311615958,9.4262526686
1520616724996800714,-0.0817869438,-0.0161946322,0.0595227843,0.8479175366,0.3944558411,9.8721810495
1520616725001814714,-0.0774788665,-0.0028482731,0.0815313295,0.4570830299,0.5203960251,9.9583746330
1520616725006831714,-0.0800080070,-0.0168451846,0.0849463853,0.1985309716,0.5995594299,9.9236254372
1520616725011846714,-0.0883426599,-0.0459796021,0.0820340197,0.3139774720,0.5335977153,10.1945077507
1520616725016861714,-0.0959260588,-0.0780319400,0.0807212984,0.6771529213,0.3908717196,10.3003535067
1520616725021876714,-0.0956829537,-0.0879563978,0.0871383483,0.7529146872,0.3632855893,10.2856972555
1520616725026892714,-0.0989643165,-0.0999102708,0.0892176364,0.5580987177,0.4652276982,10.2049818601
1520616725031909714,-0.1050330107,-0.1252528896,0.0852477868,0.5629089886,0.4988032554,10.0642828799
1520616725036924714,-0.1040537646,-0.1412648046,0.0799832782,0.6098091294,0.4664228112,10.0510743713
1520616725041939714,-0.1050833605,-0.1528921707,0.0693449317,0.6001885877,0.3465095181,9.9501784217
1520616725046954714,-0.1048335436,-0.1487893790,0.0607181195,0.5196165509,0.2829613509,9.8208645126
1520616725051969714,-0.1055713624,-0.1298176292,0.0489600008,0.3079646335,0.2673890096,9.5998081647
1520616725056985714,-0.1042956542,-0.1038307385,0.0294056714,0.2394182738,0.1582725697,9.4611244883
1520616725062001714,-0.1012443963,-0.0644336429,0.0077859697,0.0758690649,0.0539600906,9.3989001910
1520616725067017714,-0.0994455396,-0.0215382400,-0.0146163591,-0.0985032535,-0.1618716049,9.3519978592
1520616725072031714,-0.0981388954,0.0298107594,-0.0383060145,-0.2380011082,-0.2889696253,9.3813710506
1520616725077047714,-0.0975984577,0.0753463416,-0.0674496493,-0.3606630150,-0.4064758334,9.3454909551
1520616725082063714,-0.1000821447,0.1132989171,-0.0944811164,-0.3257885513,-0.4700329920,9.3603213548
1520616725087078714,-0.1033214493,0.1480372263,-0.1182890866,-0.2404062437,-0.4868276078,9.4780453499
1520616725092092714,-0.1080765601,0.1746059800,-0.1383688603,-0.1502136652,-0.5012243174,9.5608558674
1520616725097110714,-0.1158545725,0.1912460822,-0.1509433331,-0.0179312168,-0.4472733009,9.6548114952
1520616725102124714,-0.1211229054,0.2020441813,-0.1578854711,0.0530202783,-0.4029106312,9.6784826543
1520616725107139714,-0.1269027353,0.2017490754,-0.1573358677,0.2033412424,-0.3129868069,9.7059854207
1520616725112156714,-0.1331911102,0.1941560477,-0.1519710819,0.3440416648,-0.2038759866,9.7393738379
1520616725117171714,-0.1384725844,0.1839234707,-0.1401350693,0.4366393787,-0.1223416497,9.7244473060
1520616725122185714,-0.1402459505,0.1661155460,-0.1280928451,0.4811343841,-0.0923666045,9.7739571755
1520616725127202714,-0.1422732147,0.1450964655,-0.1139102410,0.5184139832,-0.0396073293,9.8072450425
1520616725132216714,-0.1480704083,0.1211504081,-0.0954141326,0.6074039940,0.0323341653,9.8911452166
1520616725137232714,-0.1483403919,0.0960402501,-0.0766666385,0.6242399420,0.1042812794,9.8630197305
1520616725142247714,-0.1511235363,0.0721004731,-0.0600699519,0.6122142648,0.2158022754,9.8490823051
1520616725147263714,-0.1503848864,0.0519551724,-0.0453447207,0.5448704729,0.2925525074,9.8461765187
1520616725152278714,-0.1488886430,0.0350175821,-0.0314080734,0.4727164101,0.3489177269,9.7759330819
1520616725157294714,-0.1458773852,0.0256667783,-0.0212040688,0.4125880245,0.3705069376,9.7218765208
1520616725162309714,-0.1388423902,0.0215763115,-0.0161078882,0.3115723366,0.3861036305,9.6705480662
1520616725167326714,-0.1302958150,0.0215716463,-0.0131477520,0.2851158469,0.3933005336,9.6312856669
1520616725172340714,-0.1184783524,0.0241892648,-0.0096325835,0.2839132792,0.3777118017,9.5906375350
1520616725177356714,-0.1089160242,0.0314674213,-0.0058070993,0.2490388155,0.3549308498,9.5526484486
1520616725182372714,-0.1008571335,0.0419502168,-0.0019543609,0.2839132792,0.3285470444,9.5546590153
1520616725187387714,-0.0895281981,0.0518384114,0.0067576901,0.2827107115,0.3273479976,9.5012132678
1520616725192401714,-0.0807123412,0.0608478258,0.0168204686,0.2358105707,0.3033688419,9.3936137641
1520616725197418714,-0.0708902776,0.0704396746,0.0271563723,0.2959389563,0.2937710355,9.3849028583
1520616725202432714,-0.0610684726,0.0817885717,0.0342590637,0.3235980137,0.2482015452,9.4392988427
1520616725207449714,-0.0530081353,0.0913884725,0.0413516837,0.3223954460,0.1942403198,9.5172268130
1520616725212465714,-0.0477211921,0.0942854461,0.0483983066,0.2225823258,0.0503512428,9.6310666169
1520616725217480714,-0.0434636372,0.0811638896,0.0523485219,0.1684667787,-0.1702863804,9.8131029598
1520616725222494714,-0.0412300650,0.0590129958,0.0546102800,0.1756821850,-0.3381666017,9.9805451663
1520616725227511714,-0.0407698352,0.0278350483,0.0543714764,0.2225823258,-0.4700757010,10.0592430853
1520616725232525714,-0.0440819890,-0.0045055436,0.0525075060,0.2899261178,-0.4425007162,10.0911007381
1520616725237541714,-0.0438682635,-0.0324798166,0.0528347148,0.3127749043,-0.4341085128,9.9886014887
1520616725242557714,-0.0441543678,-0.0598780734,0.0556022164,0.3452442326,-0.3393789481,9.8591950954
1520616725247572714,-0.0431684883,-0.0747412042,0.0565691557,0.2213797581,-0.3381701607,9.8859667139
1520616725252587714,-0.0444480384,-0.0925197948,0.0577886106,0.2887235500,-0.1978759762,9.7399064238
1520616725257603714,-0.0434429764,-0.0931043553,0.0585939353,0.3139774720,-0.1283277985,9.6466212796
1520616725262619714,-0.0386570353,-0.0846516049,0.0583789911,0.3019517949,-0.0743655428,9.5688220649
1520616725267634714,-0.0368864567,-0.0747372859,0.0560163959,0.3296108523,-0.0959522246,9.5488174495
1520616725272649714,-0.0320911419,-0.0584127827,0.0542381996,0.3175851752,-0.0767650412,9.5477536467
1520616725277665714,-0.0270539882,-0.0493742511,0.0529450513,0.3332185554,-0.0659739950,9.5487531009
1520616725282681714,-0.0199977758,-0.0336316309,0.0511582084,0.3055594980,-0.0707684025,9.5246219715
1520616725287696714,-0.0124406359,-0.0184686690,0.0482838023,0.3296108523,-0.0683719949,9.4558190384
1520616725292711714,-0.0043856028,-0.0056314875,0.0434968568,0.3416365294,-0.1103428463,9.4673643542
1520616725297727714,0.0094510637,0.0086656096,0.0384397462,0.3572699097,-0.1750976467,9.4754103405
1520616725302741714,0.0207735108,0.0223804099,0.0328417648,0.3644853160,-0.2206655448,9.4916545604
1520616725307758714,0.0313363926,0.0343575342,0.0231736567,0.3488519357,-0.2434479952,9.4639374887
1520616725312774714,0.0461648857,0.0410892254,0.0142692364,0.3284082846,-0.2494421051,9.4734394730
1520616725317789714,0.0617548418,0.0530646766,0.0059445233,0.3103697689,-0.2974063172,9.4202032005
1520616725322804714,0.0760887035,0.0667944986,-0.0047994308,0.3344211231,-0.3441746669,9.3770153773
1520616725327819714,0.0921827980,0.0802285263,-0.0136550537,0.3356236908,-0.3153953904,9.3967320553
1520616725332835714,0.1097790086,0.0889988069,-0.0217374086,0.2947363886,-0.3022016613,9.4087386040
1520616725337850714,0.1271215407,0.0945572034,-0.0274088377,0.3356236908,-0.3010057053,9.4036908870
1520616725342866714,0.1434622137,0.0998114382,-0.0284813428,0.3981572119,-0.2794260480,9.3914397364
1520616725347881714,0.1615666360,0.1062217023,-0.0257605800,0.4667035716,-0.2554485782,9.3942355932
1520616725352896714,0.1768999496,0.1067995507,-0.0217264156,0.5027806029,-0.2542522475,9.3915589843
1520616725357912714,0.1909740758,0.1018245753,-0.0117801464,0.4943626290,-0.2326670643,9.4462406374
1520616725362927714,0.2062990703,0.0948198701,-0.0053688690,0.4618933007,-0.2158765695,9.4558374548
1520616725367944714,0.2208789186,0.0924690092,0.0040553827,0.4498676236,-0.2062825096,9.4582694386
1520616725372957714,0.2324399271,0.0883715734,0.0123897130,0.4751215456,-0.1535222978,9.5102686594
1520616725377973714,0.2439999672,0.0833992556,0.0209879200,0.5244268218,-0.1079588018,9.5202036128
1520616725382989714,0.2580757203,0.0792969769,0.0314819502,0.5893654783,-0.0659939446,9.6055292655
1520616725388005714,0.2686255901,0.0693649009,0.0422085988,0.5256293895,-0.0635906997,9.7002809551
1520616725393021714,0.2779134262,0.0568164277,0.0504826601,0.4186008630,-0.0419978364,9.7605709987
1520616725398036714,0.2864482480,0.0457282240,0.0574165076,0.4246137016,-0.0036258111,9.7163135843
1520616725403050714,0.2942381470,0.0407566146,0.0652100777,0.3729032900,0.0515386757,9.6935202330
1520616725408067714,0.3040292042,0.0314259515,0.0689083793,0.3175851752,0.0779240734,9.7196001072
1520616725413083714,0.3138168780,0.0212284191,0.0698945527,0.2959389563,0.0755274784,9.7976767818
1520616725418099714,0.3203395998,0.0113158922,0.0727828378,0.3332185554,0.1534687025,9.7844543345
1520616725423112714,0.3273674244,0.0022733453,0.0773001342,0.3608776128,0.2422029396,9.8387193529
1520616725428129714,0.3356484422,-0.0096847399,0.0826045037,0.3969546442,0.3069537127,9.8336564811
1520616725433144714,0.3424213533,-0.0239839617,0.0914109856,0.4065751859,0.3309357719,9.8904845076
1520616725438160714,0.3474358313,-0.0382860579,0.1010323722,0.4065751859,0.3285374910,9.9683504912
1520616725443175714,0.3469171207,-0.0540385016,0.1074063605,0.3560673420,0.3081560376,10.0037263010
1520616725448191714,0.3471500641,-0.0709540028,0.1129584187,0.3199903106,0.3105571282,9.9831565228
1520616725453204714,0.3493990318,-0.0829115372,0.1171918060,0.3272057169,0.3189505492,10.0330502972
1520616725458220714,0.3473670357,-0.1001098394,0.1192287449,0.3536622065,0.3333381738,10.0455623373
1520616725463236714,0.3430779685,-0.1143973678,0.1221037529,0.3175851752,0.3273452815,10.0680000709
1520616725468253714,0.3367775501,-0.1266336087,0.1203987760,0.3151800397,0.3333411709,10.1110169606
1520616725473267714,0.3304784529,-0.1374107417,0.1178932769,0.3248005814,0.3585223705,10.1329794991
1520616725478283714,0.3239332475,-0.1446928157,0.1159560133,0.3452442326,0.3561224974,10.0886213816
1520616725483299714,0.3136197907,-0.1513950544,0.1145712885,0.3272057169,0.3309419535,10.0969565212
1520616725488314714,0.3015559493,-0.1531510011,0.1156625363,0.3211928783,0.3297432813,10.0458818819
1520616725493329714,0.2922534077,-0.1554813496,0.1140387450,0.2923312532,0.3069618611,10.0531578844
1520616725498345714,0.2791841984,-0.1560663246,0.1129763848,0.3115723366,0.2949689583,10.0239286980
1520616725503359714,0.2666200058,-0.1551956370,0.1124652984,0.3512570711,0.3141521143,9.9967944108
1520616725508375714,0.2563213329,-0.1505316938,0.1103556363,0.3115723366,0.2841766945,10.0088313507
1520616725513391714,0.2440132808,-0.1452864976,0.1085247000,0.2574567895,0.2206264668,9.9652585829
1520616725518407714,0.2306970891,-0.1409100214,0.1045245942,0.2370131384,0.2386151653,9.9886829079
1520616725523422714,0.2188953787,-0.1312865760,0.1000206118,0.2742927375,0.2589976491,9.9092743835
1520616725528438714,0.2088494590,-0.1245784721,0.0963027691,0.2658747635,0.2973707983,9.8791031572
1520616725533453714,0.1988114155,-0.1117498362,0.0920905195,0.3260031491,0.3381368897,9.8645324194
1520616725538468714,0.1912846432,-0.1006707082,0.0886719017,0.4210059985,0.4208701797,9.8542298839
1520616725543484714,0.1840017365,-0.0942499921,0.0838645185,0.4017649151,0.4316639421,9.8625416485
1520616725548499714,0.1759653764,-0.0863675497,0.0771758295,0.3187877429,0.4184798600,9.8680107359
1520616725553514714,0.1689357053,-0.0781969710,0.0718402262,0.3584724774,0.3693120118,9.8211866538
1520616725558531714,0.1631675465,-0.0653593771,0.0649145833,0.3753084254,0.3513235943,9.8024460198
1520616725563546714,0.1561383654,-0.0545561397,0.0558113453,0.3717007222,0.4004886326,9.8070817679
1520616725568562714,0.1486095309,-0.0428847730,0.0488800771,0.3813212639,0.4352629556,9.7988192089
1520616725573576714,0.1390727247,-0.0297587283,0.0425047499,0.3801186962,0.4448561726,9.8150915746
1520616725578593714,0.1287813555,-0.0195577506,0.0401667805,0.3668904514,0.4724374326,9.8035719959
1520616725583607714,0.1220105457,-0.0076070874,0.0378356155,0.4005623473,0.4772313719,9.8264824560
1520616725588622714,0.1139829751,0.0031731748,0.0371211671,0.4414496496,0.5239946639,9.7621209624
1520616725593639714,0.1029412221,0.0133622022,0.0391133322,0.4811343841,0.5827494539,9.7512181023
1520616725598654714,0.0971818881,0.0258778175,0.0435483938,0.4017649151,0.5623702483,9.7438755071
1520616725603669714,0.0901658835,0.0381008276,0.0482541119,0.4414496496,0.5611680171,9.7341932580
1520616725608685714,0.0806275600,0.0421582588,0.0550666179,0.5003754675,0.5407780405,9.7429367406
1520616725613701714,0.0728387429,0.0412723120,0.0583209679,0.4618933007,0.4976119824,9.7735691414
1520616725618716714,0.0645548044,0.0447518371,0.0635034188,0.4282214047,0.5144025708,9.7448269134
1520616725623730714,0.0565183423,0.0473660482,0.0654321830,0.4558804621,0.4664347997,9.7446044707
1520616725628746714,0.0492386347,0.0514345637,0.0684528460,0.4005623473,0.4664391080,9.7532779110
1520616725633761714,0.0427117690,0.0552141752,0.0706582481,0.3596750451,0.4748362754,9.7978291678
1520616725638777714,0.0361796303,0.0575477906,0.0687943463,0.3668904514,0.4772339943,9.7617301362
1520616725643794714,0.0301475842,0.0590118199,0.0652995664,0.3741058577,0.4892248366,9.7848910915
1520616725648808714,0.0203475493,0.0607621148,0.0631667400,0.3308134200,0.5264015615,9.8038705273
1520616725653823714,0.0135609010,0.0610573969,0.0607466515,0.3584724774,0.5515813562,9.7814960198
1520616725658840714,0.0077778250,0.0619438546,0.0553531375,0.3235980137,0.5719694595,9.8410849293
1520616725663855714,-0.0002649568,0.0657498274,0.0475511418,0.3103697689,0.5815636132,9.8807172246
1520616725668871714,-0.0088128021,0.0669295003,0.0410828012,0.3127749043,0.5959531109,9.8585990473
1520616725673885714,-0.0161043729,0.0681103940,0.0343415811,0.2971415240,0.5983526094,9.8773431777
1520616725678901714,-0.0238955500,0.0713300540,0.0278874020,0.2694824666,0.6007530444,9.8683129036
1520616725683917714,-0.0294296520,0.0731024187,0.0181713561,0.2754953052,0.6079474186,9.8543016349
1520616725688933714,-0.0362128189,0.0780693228,0.0122697404,0.2766978729,0.6295318526,9.9065653596
1520616725693948714,-0.0412359258,0.0839117982,0.0061009810,0.2791030083,0.6475187716,9.8879301062
1520616725698963714,-0.0492725093,0.0903314905,0.0015655438,0.2779004406,0.6715016738,9.8274869388
1520616725703977714,-0.0560500976,0.0961579797,0.0010815152,0.2718876021,0.7314591632,9.8646756037
1520616725708994714,-0.0618220083,0.1016905643,0.0016755803,0.2887235500,0.7362544137,9.9528299961
1520616725714009714,-0.0678466252,0.1063496254,0.0019928969,0.3031543626,0.7866171875,9.9421811275
1520616725719025714,-0.0743738948,0.1069108954,0.0090436711,0.3416365294,0.8297832457,9.9568723409
1520616725724039714,-0.0793937242,0.1068885302,0.0166282907,0.3644853160,0.8357771682,9.9729141135
1520616725729055714,-0.0854195879,0.1051123650,0.0260952599,0.3668904514,0.8465692447,9.9821773310
1520616725734071714,-0.0911936274,0.1027491587,0.0371805916,0.3717007222,0.8093955170,9.9740317526
1520616725739087714,-0.0934549327,0.0986492216,0.0444584081,0.3464468003,0.7290550755,9.9790044803
1520616725744102714,-0.0999910467,0.0922150776,0.0522674660,0.3308134200,0.7002769229,9.9710497025
1520616725749118714,-0.1052733050,0.0843266886,0.0592514372,0.2803055761,0.6151418865,9.9321114435
1520616725754132714,-0.1072928028,0.0776240568,0.0592040400,0.2670773312,0.5875626871,9.9682935565
1520616725759149714,-0.1103212320,0.0694699360,0.0569830271,0.2875209823,0.5527860226,9.9274534430
1520616725764164714,-0.1153594403,0.0601422052,0.0574623147,0.2622670604,0.5467922873,9.9544344069
1520616725769178714,-0.1188900712,0.0522792720,0.0552444583,0.2129617841,0.5228133189,9.9712077163
1520616725774194714,-0.1239306905,0.0444230324,0.0503239433,0.1732770496,0.5228164097,9.9216217931
1520616725779210714,-0.1272072430,0.0415268465,0.0432735866,0.1432128568,0.5048316448,9.8940405047
1520616725784226714,-0.1319848179,0.0418272868,0.0392264890,0.1143512317,0.4796519438,9.9361831646
1520616725789241714,-0.1347515552,0.0450540149,0.0308691541,0.1155537994,0.4712578671,9.8827210230
1520616725794257714,-0.1395294751,0.0476971864,0.0225111068,0.1275794765,0.4664603689,9.8337986037
1520616725799271714,-0.1437969291,0.0535341297,0.0185053144,0.1203640702,0.4424781223,9.8234329252
1520616725804286714,-0.1475583982,0.0617016176,0.0147869191,0.0927050128,0.4292897319,9.8120935647
1520616725809302714,-0.1495616968,0.0701655499,0.0094442044,0.0987178514,0.4328866848,9.7678700612
1520616725814318714,-0.1525720843,0.0765864829,0.0051699787,0.0963127160,0.4508739785,9.7609030675
1520616725819334714,-0.1523191506,0.0803862351,0.0008696777,0.1576436693,0.4772502912,9.7672532479
1520616725824349714,-0.1558321828,0.0856363341,-0.0015186857,0.1588462370,0.4808476188,9.7765351864
1520616725829364714,-0.1540679395,0.0908885007,-0.0039168503,0.1792898882,0.5024305542,9.8576652291
1520616725834381714,-0.1553323490,0.0865237964,-0.0063827760,0.2285951644,0.5108206971,9.8571771365
1520616725839396714,-0.1535775265,0.0827335730,-0.0053327596,0.2334054352,0.4784435310,9.8583240323
1520616725844411714,-0.1523249018,0.0806980157,-0.0067033843,0.2742927375,0.4784403466,9.8381696132
1520616725849427714,-0.1498198328,0.0748713097,-0.0067525132,0.2538490864,0.4304763219,9.7884431827
1520616725854441714,-0.1478199567,0.0672968281,-0.0070845931,0.2875209823,0.3585252740,9.7951584652
1520616725859457714,-0.1448109257,0.0626365856,-0.0073963091,0.2742927375,0.3129589681,9.7372244580
1520616725864473714,-0.1428038831,0.0585507055,-0.0047257071,0.2803055761,0.2973696743,9.6906953760
1520616725869488714,-0.1413044053,0.0524322212,-0.0047751922,0.2718876021,0.2158287812,9.7024782660
1520616725874504714,-0.1395527466,0.0477744001,-0.0061667581,0.2334054352,0.2074377953,9.6679966945
1520616725879519714,-0.1332761290,0.0428204108,-0.0051340351,0.2261900290,0.1318925106,9.6669784493
1520616725884535714,-0.1312716778,0.0384504305,-0.0051711151,0.2586593572,0.0947166287,9.6550772227
1520616725889550714,-0.1290152692,0.0340783634,-0.0043970242,0.2562542218,0.1103056415,9.5900053700
1520616725894565714,-0.1255033347,0.0288319066,-0.0033613903,0.2430259770,0.1151032334,9.5668865692
1520616725899581714,-0.1222317455,0.0311591637,-0.0014558518,0.1913155653,0.1127089800,9.5650679374
1520616725904596714,-0.1172084975,0.0288285997,-0.0009418791,0.1744796173,0.1282991167,9.5791623342
1520616725909612714,-0.1106772723,0.0297176965,-0.0055466249,0.2334054352,0.1378876508,9.6285516218
1520616725914628714,-0.1066494930,0.0358427174,-0.0071306831,0.2201771904,0.1822568767,9.6205021041
1520616725919642714,-0.1008675539,0.0367162218,-0.0060525648,0.2021386747,0.2134359326,9.6369172925
1520616725924658714,-0.0978575114,0.0326380199,-0.0060892887,0.1949232684,0.2554064094,9.6555408993
1520616725929674714,-0.0923313561,0.0311847201,-0.0066517639,0.1937207007,0.2194322903,9.7160191701
1520616725934689714,-0.0870584323,0.0294450364,-0.0091098166,0.1372000182,0.2518134838,9.7200241675
1520616725939705714,-0.0837973498,0.0271239813,-0.0123802195,0.1323897474,0.2817923690,9.7235281861
1520616725944720714,-0.0797811828,0.0256773751,-0.0156453532,0.1492256953,0.2817910578,9.7245264592
1520616725949736714,-0.0714960133,0.0227791622,-0.0202822662,0.1023255545,0.2482187786,9.7319885617
1520616725954751714,-0.0657209741,0.0213339736,-0.0238212129,0.1359974505,0.2494152966,9.7223624991
1520616725959767714,-0.0617035761,0.0204686796,-0.0265408086,0.1384025859,0.2674022156,9.7409158522
1520616725964782714,-0.0576840650,0.0216452626,-0.0300564805,0.1299846119,0.2686020117,9.7584287776
1520616725969798714,-0.0526664428,0.0172844766,-0.0330751661,0.1359974505,0.2733981051,9.7420955596
1520616725974814714,-0.0486508443,0.0167178514,-0.0384979978,0.1107435285,0.3057768634,9.7353369299
1520616725979829714,-0.0416196246,0.0129326093,-0.0385399661,0.1492256953,0.2913841812,9.7361385441
1520616725984844714,-0.0363517621,0.0068192440,-0.0399491816,0.2021386747,0.2937783410,9.7565397741
1520616725989859714,-0.0310814376,0.0018685030,-0.0402673211,0.2129617841,0.3165611661,9.7761686584
1520616725994875714,-0.0280667377,-0.0010543588,-0.0365075101,0.2201771904,0.3489373955,9.7818775756
1520616725999891714,-0.0210357846,-0.0060095096,-0.0349350955,0.1913155653,0.3657276093,9.7751692625
1520616726004904714,-0.0172736529,-0.0127157044,-0.0328288601,0.2189746227,0.3825134211,9.8225315776
1520616726009921714,-0.0137608874,-0.0191357120,-0.0288261137,0.2899261178,0.4220795291,9.8659638613
1520616726014936714,-0.0097534865,-0.0310903720,-0.0254076311,0.2730901698,0.4256782616,9.8626377922
1520616726019968714,-0.0072488252,-0.0415988980,-0.0181875902,0.2815081438,0.4256776060,9.9032308952
1520616726024968714,-0.0059994702,-0.0512337628,-0.0109585464,0.2706850343,0.4760423467,9.9032871285
1520616726029983714,-0.0024882022,-0.0594049914,-0.0058869549,0.2430259770,0.4916333264,9.8570553852
1520616726034999714,-0.0014871077,-0.0658303542,-0.0002562659,0.2021386747,0.4832425279,9.8470022469
1520616726040014714,-0.0002270146,-0.0664271996,0.0051478722,0.1913155653,0.4256846305,9.8192722658
1520616726045030714,0.0010255199,-0.0693405526,0.0051233078,0.0927050128,0.3669344298,9.8109922264
1520616726050045714,0.0025332698,-0.0690471205,0.0045816387,0.1107435285,0.3585390420,9.7806090931
1520616726055059714,0.0020292647,-0.0699207425,0.0043053570,0.0650459554,0.3333606522,9.7985106007
1520616726060076714,0.0020267635,-0.0693270470,0.0002516147,0.0409946012,0.2937908914,9.7743782670
1520616726065091714,0.0015210060,-0.0687313631,-0.0046128318,0.0421971689,0.2662105680,9.7941499040
1520616726070110714,-0.0004896394,-0.0655116239,-0.0102661079,0.0674510909,0.2638103203,9.7485828223
1520616726075121714,-0.0002378505,-0.0628788667,-0.0140342093,0.0433997366,0.2686087552,9.7883251405
1520616726080137714,-0.0002326089,-0.0567495936,-0.0177751671,0.0470074397,0.2518205083,9.7743606686
1520616726085153714,-0.0027440055,-0.0526580830,-0.0226092028,0.0782742003,0.2817965837,9.7809999674
1520616726090168714,-0.0042519239,-0.0503166710,-0.0266468062,0.0975152837,0.2949856298,9.7900969754
1520616726095184714,-0.0060023437,-0.0421505807,-0.0295572976,0.1299846119,0.3489444200,9.8106469098
1520616726100199714,-0.0087645609,-0.0398169453,-0.0308871085,0.1600488048,0.3909119934,9.8312319477
1520616726105213714,-0.0140374807,-0.0366137831,-0.0308528533,0.1708719142,0.4352793461,9.8566505036
1520616726110231714,-0.0180515777,-0.0328324586,-0.0289226644,0.1299846119,0.4376808114,9.8349654017
1520616726115246714,-0.0213062347,-0.0249714553,-0.0269627524,0.1792898882,0.4664563415,9.8623488851
1520616726120260714,-0.0273205174,-0.0144927164,-0.0236249692,0.1997335393,0.4640564684,9.8214771995
1520616726125277714,-0.0328350605,-0.0054677895,-0.0213814185,0.1828975913,0.4856423073,9.7170270663
1520616726130293714,-0.0393443354,0.0084978972,-0.0144989282,0.1937207007,0.4796457622,9.7076304158
1520616726135307714,-0.0448469604,0.0245080400,-0.0092260186,0.1804924559,0.4220880521,9.6473838141
1520616726140322714,-0.0503437754,0.0457674748,-0.0055363688,0.1444154245,0.3921123514,9.5536305390
1520616726145338714,-0.0563461283,0.0676218652,-0.0064406196,0.0650459554,0.3501486181,9.5370118403
1520616726150353714,-0.0620988094,0.0886036572,-0.0078930982,0.0794767680,0.2937878943,9.5101970276
1520616726155368714,-0.0691138769,0.1063848263,-0.0112615184,0.0927050128,0.2146435961,9.5659283582
1520616726160385714,-0.0753792703,0.1215460152,-0.0154629842,0.0662485231,0.1582860567,9.6871037996
1520616726165400714,-0.0839195061,0.1276763114,-0.0208113488,0.0902998774,0.1079202857,9.8426461006
1520616726170414714,-0.0914770263,0.1180758791,-0.0276343563,0.2538490864,0.0731324757,9.9793832543
1520616726175432714,-0.1028118698,0.0991336396,-0.0285694920,0.3284082846,0.1234905665,10.1041199756
1520616726180447714,-0.1133988424,0.0764066104,-0.0306171115,0.2995466595,0.0887177421,10.1683527253
1520616726185462714,-0.1217291045,0.0472576243,-0.0281185592,0.3656878837,0.1019031355,10.2688026085
1520616726190477714,-0.1320717802,0.0169437693,-0.0261662573,0.4294239725,0.2457950223,10.2169075858
1520616726195492714,-0.1401282247,0.0017696841,-0.0192327293,0.3211928783,0.3165527367,10.0319490172
1520616726200508714,-0.1456563246,-0.0014537372,-0.0132949056,0.2237848935,0.3585302379,9.9154796605
1520616726205523714,-0.1486687037,-0.0008801623,-0.0103088539,0.1396051536,0.3405496878,9.8547229249
1520616726210540714,-0.1521804186,0.0043655661,-0.0110739419,0.0662485231,0.3573433670,9.8007997968
1520616726215555714,-0.1519171938,0.0142778375,-0.0128926450,0.0818819034,0.3285627792,9.7739463843
1520616726220570714,-0.1506552385,0.0204068744,-0.0163653905,0.0830844711,0.2889910516,9.7565411081
1520616726225586714,-0.1471267952,0.0312040489,-0.0217005883,0.0494125752,0.2398289167,9.7208903300
1520616726230601714,-0.1428416366,0.0452118476,-0.0289065537,0.0361843303,0.1954617513,9.6466851381
1520616726235616714,-0.1375586255,0.0554393256,-0.0388487451,-0.0179312168,0.1882711235,9.6774346245
1520616726240633714,-0.1325261253,0.0647859957,-0.0463622259,-0.0287543262,0.1295140857,9.6996780027
1520616726245648714,-0.1254902325,0.0680100077,-0.0523028499,-0.0383748679,0.0971380435,9.7207218065
1520616726250664714,-0.1139288476,0.0732776689,-0.0590479511,-0.0732493316,0.0551708448,9.7745608019
1520616726255677714,-0.1079119106,0.0701075815,-0.0712581717,-0.1610367746,-0.0179698838,9.7731623128
1520616726260694714,-0.0986257994,0.0692727638,-0.0845388586,-0.1826829934,-0.1067045893,9.8025131338
1520616726265712714,-0.0890892204,0.0696115956,-0.1007871247,-0.2211651602,-0.1366801027,9.7413232995
1520616726270724714,-0.0785478421,0.0696594365,-0.1170394809,-0.1417956912,-0.0863223865,9.7346909338
1520616726275740714,-0.0647409473,0.0670788124,-0.1306124532,-0.0371723002,0.0000075756,9.6557247565
1520616726280756714,-0.0496695646,0.0653502528,-0.1357941672,0.1396051536,0.0575525479,9.6272186740
1520616726285771714,-0.0368549984,0.0633119402,-0.1344808022,0.2141643518,0.1246986047,9.6113196061
1520616726290787714,-0.0235329183,0.0606721162,-0.1261386235,0.2670773312,0.1726601006,9.5503263244
1520616726295801714,-0.0081947787,0.0597704606,-0.1137286516,0.3392313940,0.2278149404,9.5333002161
1520616726300818714,0.0063967212,0.0632349069,-0.0996606580,0.3368262586,0.2218194256,9.4624386917
1520616726305832714,0.0239985300,0.0637910600,-0.0872437712,0.3260031491,0.2374090941,9.4985552983
1520616726310848714,0.0403430450,0.0608369948,-0.0699814018,0.3644853160,0.2721811692,9.5167411290
1520616726315865714,0.0581991283,0.0575782955,-0.0475836837,0.3211928783,0.2338120475,9.5148756419
1520616726320878714,0.0760528907,0.0566688833,-0.0319318283,0.2899261178,0.2182256571,9.6255988505
1520616726325895714,0.0923977624,0.0557625225,-0.0176299021,0.2225823258,0.2026420766,9.6437016944
1520616726330911714,0.1082354222,0.0534077833,-0.0065847086,0.1456179922,0.2266308793,9.6769674619
1520616726335926714,0.1245750680,0.0522260634,0.0017629848,0.0902998774,0.2542154174,9.7030461667
1520616726340941714,0.1389017789,0.0519300928,0.0055218010,0.0698562263,0.2314333415,9.7090780899
1520616726345956714,0.1532282350,0.0548546491,0.0036236074,0.0217535178,0.2374327901,9.7153511652
1520616726350971714,0.1663024192,0.0603989885,0.0025593928,-0.0985032535,0.2494335603,9.6781592270
1520616726355987714,0.1788636794,0.0630504103,-0.0063719502,-0.1935061029,0.2998048572,9.6616026548
1520616726361003714,0.1914256532,0.0697972409,-0.0212241796,-0.2043292123,0.2998057001,9.6675187201
1520616726366019714,0.2022266495,0.0774277339,-0.0398541153,-0.2079369154,0.2722257514,9.6617700103
1520616726371033714,0.2160455173,0.0859299198,-0.0571302530,-0.1670496132,0.2434431968,9.6683729663
1520616726376049714,0.2260985526,0.0964674069,-0.0733016446,-0.0804647378,0.2326441895,9.6652164384
1520616726381065714,0.2361524581,0.1040750232,-0.0835432574,0.0073227052,0.2470270374,9.7119958393
1520616726386080714,0.2461987032,0.1040979007,-0.0905961196,0.0866921743,0.2374277324,9.7542319866
1520616726391095714,0.2577495265,0.1006196555,-0.0957846379,0.0818819034,0.2542160730,9.7775053151
1520616726396112714,0.2670375116,0.0945100507,-0.0980129586,0.1372000182,0.2781945731,9.7467277530
1520616726401127714,0.2733153563,0.0886738951,-0.0940109000,0.1841001590,0.2446149885,9.7939518994
1520616726406142714,0.2803428712,0.0787542809,-0.0884180893,0.2021386747,0.2122367922,9.8007807594
1520616726411159714,0.2881266544,0.0691197906,-0.0803895427,0.2081515133,0.2158337451,9.7507465361
1520616726416173714,0.2926485200,0.0615164279,-0.0696339081,0.1877078622,0.2062422140,9.6998205428
1520616726421187714,0.2966620719,0.0510048504,-0.0610639380,0.1299846119,0.1702724969,9.7178496250
1520616726426203714,0.2994256376,0.0439835675,-0.0503005902,0.1083383931,0.1319016893,9.7076384393
1520616726431219714,0.3004259794,0.0352191157,-0.0417116810,0.0818819034,0.1450942945,9.7729631492
1520616726436234714,0.2999203356,0.0290823614,-0.0352643308,0.0975152837,0.1594827620,9.7902291107
1520616726441250714,0.2956479771,0.0235203434,-0.0263706206,0.0674510909,0.2002558779,9.8206977224
1520616726446266714,0.2918732060,0.0162189563,-0.0207377331,0.0794767680,0.2674068050,9.8739738107
1520616726451281714,0.2858367415,0.0074532047,-0.0126768474,0.1335923151,0.3033768030,9.9198977612
1520616726456295714,0.2772873318,-0.0016063730,-0.0040724258,0.1600488048,0.3909119934,9.9985806771
1520616726461312714,0.2694929595,-0.0109621388,0.0064221939,0.1684667787,0.4352795334,9.9879961805
1520616726466328714,0.2528985060,-0.0246964890,0.0185230779,0.1865052944,0.4772480433,10.0493733074
1520616726471342714,0.2357968404,-0.0398792176,0.0273672292,0.1468205599,0.5060305043,10.0694879573
1520616726476359714,0.2202079821,-0.0518583110,0.0370446718,0.0987178514,0.4736574592,10.0513934285
1520616726481374714,0.2011026142,-0.0617954489,0.0453914806,0.0794767680,0.5168280130,10.0492143253
1520616726486390714,0.1819953645,-0.0693847567,0.0475335186,0.0578305492,0.5480073499,10.0156924388
1520616726491405714,0.1626366866,-0.0760956388,0.0480594171,0.0506151429,0.5935752480,10.0285018177
1520616726496419714,0.1387554217,-0.0822255240,0.0485981628,0.0554254137,0.5935748733,10.0551843084
1520616726501436714,0.1166303084,-0.0877595676,0.0445388074,0.0277663563,0.6427417849,10.0902699005
1520616726506451714,0.0935057666,-0.0877518716,0.0383591903,-0.0071081073,0.6019737266,10.1173784156
1520616726511466714,0.0671157946,-0.0857013933,0.0305779269,-0.0131209459,0.6091690375,10.0907006139
1520616726516482714,0.0429894526,-0.0804367863,0.0198409120,-0.0648313576,0.5827919755,10.0877432249
1520616726521496714,0.0191276096,-0.0649714371,0.0083696007,-0.1129340661,0.5588129134,10.1149641249
1520616726526512714,-0.0042332628,-0.0503785877,-0.0036504051,-0.1033135244,0.5456216195,10.1113969153
1520616726531528714,-0.0291001209,-0.0331580408,-0.0178119699,-0.0804647378,0.5516155421,10.1158172484
1520616726536544714,-0.0574849861,-0.0156467594,-0.0322353234,-0.0564133836,0.5336265625,10.1423299983
1520616726541559714,-0.0838623618,0.0007041422,-0.0482945785,-0.0504005450,0.5048467241,10.1237052339
1520616726546575714,-0.1087388131,0.0100536647,-0.0611634371,0.0157406792,0.5504089089,10.1148820132
1520616726551590714,-0.1326026831,0.0228914541,-0.0707609349,0.0854896066,0.5432086340,10.1827766292
1520616726556606714,-0.1589857865,0.0319439023,-0.0817353951,0.0866921743,0.4748575363,10.2176958951
1520616726561621714,-0.1833642232,0.0351621633,-0.0900525918,0.1035281222,0.4796527867,10.1350151263
1520616726566636714,-0.2064801361,0.0436294802,-0.0996848360,0.1564411016,0.4772503848,10.0891788282
1520616726571651714,-0.2301048526,0.0465559235,-0.1077351100,0.1744796173,0.4364782055,10.0437193957
1520616726576668714,-0.2507151320,0.0468530749,-0.1128349877,0.2249874613,0.4172880250,10.0432464928
1520616726581683714,-0.2695656648,0.0456852516,-0.1147026970,0.2875209823,0.3968977675,10.0066312460
1520616726586698714,-0.2836437623,0.0433559462,-0.1173998042,0.3260031491,0.3741111024,9.9749010149
1520616726591713714,-0.2982306165,0.0366564044,-0.1203998700,0.3608776128,0.3825023692,9.9815262466
1520616726596728714,-0.3123044565,0.0337275760,-0.1168788677,0.3680930191,0.3441293137,9.9919527307
1520616726601745714,-0.3248702409,0.0305057686,-0.1125512512,0.4149931599,0.3393290992,9.9973116306
1520616726606760714,-0.3351766253,0.0249508572,-0.1071634362,0.3741058577,0.3681116538,10.0197622735
1520616726611776714,-0.3381942381,0.0223221160,-0.1052840220,0.2670773312,0.3669208492,9.9882651622
1520616726616791714,-0.3414617110,0.0158834245,-0.0953166644,0.2923312532,0.4088887971,9.8961690567
1520616726621805714,-0.3409608423,0.0097426935,-0.0872479057,0.2839132792,0.4556559292,9.9066646835
1520616726626822714,-0.3434758692,0.0027237136,-0.0780980321,0.2249874613,0.4652536420,9.8735267019
1520616726631837714,-0.3419684448,-0.0037138357,-0.0678689962,0.1985309716,0.4640565621,9.8621639429
1520616726636853714,-0.3339274194,-0.0075139810,-0.0622313677,0.1961258361,0.4700524515,9.8633436503
1520616726641869714,-0.3263941392,-0.0151023221,-0.0566217058,0.1648590756,0.4844445717,9.8926875485
1520616726646884714,-0.3188609021,-0.0223978218,-0.0515509126,0.1420102891,0.4496712790,9.8801602720
1520616726651898714,-0.3085684351,-0.0326024416,-0.0478602137,0.1107435285,0.4544702759,9.8595413349
1520616726656914714,-0.2940039273,-0.0410490678,-0.0471401154,0.1323897474,0.4388797645,9.8058872234
1520616726661930714,-0.2799439970,-0.0509528135,-0.0464301992,0.1047306900,0.4172973910,9.7922317603
1520616726666945714,-0.2643751720,-0.0593961321,-0.0467941514,0.1323897474,0.4172952369,9.7466389298
1520616726671960714,-0.2462865843,-0.0631777706,-0.0465861097,0.1239717734,0.3813216798,9.7142159147
1520616726676976714,-0.2259384946,-0.0640242816,-0.0539353227,0.1167563671,0.3585385737,9.6585254527
1520616726681991714,-0.2058381912,-0.0648825460,-0.0569553347,0.0915024451,0.2889903960,9.5960833070
1520616726687008714,-0.1867448393,-0.0657353768,-0.0621378469,0.0999204191,0.2722017744,9.5925313105
1520616726692023714,-0.1616162697,-0.0642576821,-0.0662315922,0.1552385339,0.2410198151,9.5827261291
1520616726697038714,-0.1357354346,-0.0651158674,-0.0684507012,0.2033412424,0.1798599071,9.5416425247
1520616726702053714,-0.1136175779,-0.0639482210,-0.0660479674,0.2009361070,0.1654704093,9.5033292164
1520616726707069714,-0.0882353455,-0.0651125563,-0.0628574480,0.2141643518,0.1438848514,9.5299508199
1520616726712085714,-0.0643626663,-0.0677351334,-0.0594046979,0.2129617841,0.1115081537,9.5241833773
1520616726717101714,-0.0427500536,-0.0709493784,-0.0529761885,0.2334054352,0.1031125785,9.5088847053
1520616726722115714,-0.0203879823,-0.0753193965,-0.0500750683,0.2310002998,0.0743333956,9.5112604675
1520616726727131714,0.0009710029,-0.0791114099,-0.0455443597,0.2225823258,0.0263684343,9.4834977215
1520616726732147714,0.0213294110,-0.0799921572,-0.0401779156,0.1564411016,-0.0048040654,9.5190362211
1520616726737162714,0.0396705286,-0.0831923851,-0.0394248026,0.1287820442,-0.0431744048,9.5112078486
1520616726742177714,0.0545012955,-0.0799806180,-0.0396984313,0.1732770496,-0.0239916234,9.4770538774
1520616726747192714,0.0703396767,-0.0753129913,-0.0394217196,0.2430259770,-0.0311918982,9.4775441441
1520616726752207714,0.0839202418,-0.0671467226,-0.0401963139,0.2081515133,-0.0599685522,9.4744252230
1520616726757224714,0.0962442225,-0.0598587420,-0.0396225144,0.1744796173,-0.0359831213,9.4503245548
1520616726762239714,0.1078122878,-0.0522716594,-0.0420210966,0.2153669196,-0.0959433269,9.4987950959
1520616726767255714,0.1171197182,-0.0443962637,-0.0436016174,0.2406208415,-0.0515770981,9.4973438802
1520616726772269714,0.1239115179,-0.0394400685,-0.0435764265,0.2490388155,-0.0335906474,9.4670286619
1520616726777286714,0.1309587525,-0.0312778165,-0.0437977942,0.2490388155,-0.0299932261,9.4821330253
1520616726782301714,0.1364931329,-0.0274898369,-0.0429675243,0.2346080030,0.0167743743,9.5159300564
1520616726787317714,0.1397663060,-0.0239970417,-0.0410530935,0.2430259770,0.0311634038,9.5669684229
1520616726792332714,0.1407746730,-0.0202020931,-0.0434609733,0.2382157061,0.1043113443,9.6262132551
1520616726797347714,0.1412779763,-0.0190334444,-0.0445351980,0.2502413832,0.1558734459,9.5888573164
1520616726802362714,0.1392731723,-0.0152476901,-0.0439614723,0.2141643518,0.2086384343,9.6286699116
1520616726807378714,0.1322456064,-0.0079621915,-0.0452455564,0.1949232684,0.1978476690,9.6718670429
1520616726812394714,0.1269819662,0.0007714493,-0.0430046955,0.2129617841,0.1918505620,9.7193452159
1520616726817410714,0.1209635983,0.0106783456,-0.0437295469,0.2370131384,0.1882512676,9.7167903349
1520616726822424714,0.1134322822,0.0138696953,-0.0396329028,0.2730901698,0.1786553344,9.7536371444
1520616726827440714,0.1008768359,0.0179310441,-0.0347086174,0.2622670604,0.1702621944,9.8083714411
1520616726832455714,0.0905753364,0.0164577015,-0.0301013169,0.2730901698,0.2050364237,9.8477450792
1520616726837471714,0.0780197921,0.0167142976,-0.0189833759,0.3151800397,0.1534701074,9.8601692674
1520616726842486714,0.0637036584,0.0152189836,-0.0067933228,0.3151800397,0.1426778436,9.8927198221
1520616726847502714,0.0491322232,0.0111025672,0.0048360975,0.2839132792,0.2014381595,9.9220204548
1520616726852517714,0.0363247606,0.0096049302,0.0181055338,0.2634696281,0.2530027899,9.8884669845
1520616726857532714,0.0204980622,0.0060693338,0.0302828257,0.1997335393,0.3105664942,9.8960040880
1520616726862549714,0.0026608007,0.0037043153,0.0403083765,0.1708719142,0.3525386569,9.9090276659
1520616726867564714,-0.0144190869,0.0045477357,0.0492747975,0.0999204191,0.3489467615,9.9225053558
1520616726872578714,-0.0299963643,0.0048235464,0.0528230541,0.0602356846,0.3201704822,9.9194332549
1520616726877595714,-0.0480798084,0.0109297052,0.0550677101,-0.0263491907,0.2734107492,9.9644830935
1520616726882610714,-0.0671681382,0.0179125375,0.0562387187,-0.0852750087,0.2350428449,9.9267433096
1520616726887626714,-0.0867664046,0.0225779369,0.0522525041,-0.1057186598,0.2134599095,9.9130176162
1520616726892641714,-0.1033459605,0.0298684353,0.0477396047,-0.0636287899,0.2554265463,9.9427827552
1520616726897657714,-0.1206823179,0.0345339924,0.0440197354,0.0241586532,0.2626145516,9.8907869360
1520616726902671714,-0.1372685228,0.0348217925,0.0429705787,0.0818819034,0.2482203709,9.8948877012
1520616726907688714,-0.1508441991,0.0322005711,0.0405408609,0.1035281222,0.2530152467,9.8505108626
1520616726912703714,-0.1624084773,0.0286986994,0.0408061990,0.0939075805,0.2446220130,9.8308562412
1520616726917718714,-0.1752342167,0.0231639280,0.0383528502,0.1083383931,0.2745993997,9.7807143570
1520616726922733714,-0.1830342422,0.0179246955,0.0350807524,0.1071358254,0.2889891784,9.8039549091
1520616726927749714,-0.1928421924,0.0153107784,0.0304796666,0.0686536586,0.2554162437,9.7753086135
1520616726932765714,-0.1971213528,0.0112348203,0.0285626564,0.0590331169,0.2386290270,9.7754186247
1520616726937780714,-0.2014097927,0.0016283836,0.0244390405,0.0746664971,0.2206407031,9.7276360970
1520616726942795714,-0.2056985424,-0.0088551204,0.0213909388,0.1071358254,0.1906596637,9.7401328774
1520616726947812714,-0.2089798583,-0.0196383563,0.0215852980,0.1095409608,0.1319015956,9.7424910528
1520616726952826714,-0.2120097851,-0.0295436979,0.0204331302,0.0794767680,0.1414970605,9.7822872190
1520616726957842714,-0.2142778531,-0.0339138951,0.0198628926,0.0674510909,0.1474936992,9.7742634152
1520616726962857714,-0.2165504020,-0.0391473194,0.0152277973,-0.0263491907,0.1762803749,9.7635269059
1520616726967873714,-0.2190730149,-0.0423360514,0.0087149091,-0.0455902742,0.2446328776,9.8066468607
1520616726972887714,-0.2195831711,-0.0446527559,0.0032871400,-0.0359697325,0.2937968856,9.8355588762
1520616726977904714,-0.2215913153,-0.0420267122,0.0016876062,0.0085252729,0.2901959989,9.8432643048
1520616726982919714,-0.2241042958,-0.0391007397,-0.0031553219,-0.0059055396,0.3021885271,9.8538523677
1520616726987935714,-0.2256101011,-0.0347174508,-0.0079890014,-0.0419825710,0.2866025114,9.8728130241
1520616726992950714,-0.2263690431,-0.0332375137,-0.0166339545,-0.0636287899,0.2949981802,9.8823126814
1520616726997965714,-0.2288942905,-0.0364175045,-0.0263933934,-0.0407800033,0.2746110135,9.8925694596
1520616727002980714,-0.2306610271,-0.0381490185,-0.0328965664,0.0037150021,0.2746075481,9.9025956681
1520616727007997714,-0.2324324250,-0.0424993511,-0.0407724766,0.0626408200,0.2566158524,9.8776346374
1520616727013012714,-0.2331953737,-0.0451038965,-0.0475547316,0.0385894657,0.2182452320,9.9011490365
1520616727018028714,-0.2352080381,-0.0415847600,-0.0561817894,0.0157406792,0.1642856925,9.9025861968
1520616727023042714,-0.2372228117,-0.0386440220,-0.0664365688,0.0818819034,0.0791415712,9.9275926088
1520616727028058714,-0.2394851049,-0.0345451286,-0.0739765302,0.1287820442,0.0299731611,9.8783740084
1520616727033073714,-0.2410016404,-0.0362729020,-0.0818328994,0.1828975913,-0.0371829173,9.8848856276
1520616727038089714,-0.2417656946,-0.0418007623,-0.0851202886,0.2249874613,-0.0827535315,9.8450074911
1520616727043105714,-0.2427821063,-0.0490813987,-0.0867972742,0.2694824666,-0.0815578565,9.7946010446
1520616727048120714,-0.2427905587,-0.0572489066,-0.0836129698,0.3524596388,-0.1523136040,9.7589980681
1520616727053135714,-0.2400347319,-0.0683422886,-0.0755862041,0.3753084254,-0.1798956133,9.6960467933
1520616727058151714,-0.2377766688,-0.0779884144,-0.0640302929,0.3849289671,-0.1990826094,9.7087554458
1520616727063167714,-0.2360169812,-0.0850144617,-0.0516418028,0.3753084254,-0.2470474770,9.7065715719
1520616727068182714,-0.2340074453,-0.0926209943,-0.0400698633,0.4077777536,-0.3213967121,9.7156251860
1520616727073197714,-0.2309884016,-0.0967290619,-0.0290142055,0.4931600612,-0.4017457703,9.7729796705
1520616727078212714,-0.2272064052,-0.0967691056,-0.0136000902,0.3789161285,-0.3885463280,9.8228888342
1520616727083228714,-0.2251803212,-0.0900883268,-0.0054363162,0.2718876021,-0.3297801115,9.8471161657
1520616727088243714,-0.2234066729,-0.0816476843,-0.0015874712,0.1937207007,-0.2985963726,9.8153065608
1520616727093260714,-0.2203852809,-0.0778606893,-0.0007525341,0.1877078622,-0.2566259895,9.8199727350
1520616727098274714,-0.2176070880,-0.0664905107,-0.0025647890,0.3115723366,-0.2302545471,9.9175236248
1520616727103289714,-0.2168263171,-0.0493101831,0.0018937072,0.5689218272,-0.3058204370,9.9499567298
1520616727108305714,-0.2092496575,-0.0251383392,0.0080162313,0.5977834523,-0.3609831443,10.0299175309
1520616727113321714,-0.1986572786,-0.0003803594,0.0133259632,0.2730901698,-0.3093948180,9.9923525761
1520616727118337714,-0.1843143607,0.0174171910,0.0069418667,0.0061201375,-0.1822651406,9.8925584807
1520616727123351714,-0.1697441485,0.0238792522,-0.0100806869,-0.0275517585,-0.0815347225,9.8614101110
1520616727128367714,-0.1534204822,0.0239213450,-0.0233677728,0.0385894657,-0.0251802739,9.7328755390
1520616727133382714,-0.1355931198,0.0190017503,-0.0334489007,0.1672642110,-0.0108006104,9.6037732309
1520616727138398714,-0.1147481132,0.0120276199,-0.0375991812,0.2261900290,-0.0263940253,9.5729991418
1520616727143414714,-0.0964159224,0.0038811394,-0.0395893197,0.2406208415,-0.0467805364,9.5577706885
1520616727148430714,-0.0740597826,-0.0019326896,-0.0415691411,0.2021386747,-0.1295182285,9.6151709884
1520616727153444714,-0.0564820567,-0.0091994844,-0.0457155773,0.1792898882,-0.2230494020,9.6515110555
1520616727158460714,-0.0386555019,-0.0205557622,-0.0461059608,0.2165694873,-0.3165852585,9.6268343842
1520616727163475714,-0.0218340131,-0.0327909580,-0.0448778714,0.2394182738,-0.3405698465,9.6161760793
1520616727168492714,-0.0057612771,-0.0427019288,-0.0411956840,0.2995466595,-0.3837435847,9.5912278997
1520616727173505714,0.0080528900,-0.0514533466,-0.0356065826,0.3500545034,-0.4101286078,9.5872755809
1520616727178521714,0.0216216075,-0.0567118907,-0.0286376079,0.3248005814,-0.4305120281,9.6282163043
1520616727183538714,0.0341873252,-0.0619781129,-0.0189613073,0.3404339617,-0.4616908967,9.6443645567
1520616727188553714,0.0439905160,-0.0657877671,-0.0095393033,0.3139774720,-0.4988621893,9.6202532944
1520616727193568714,0.0532862282,-0.0722157083,-0.0017596489,0.3043569303,-0.4784760528,9.6226513440
1520616727198583714,0.0653450789,-0.0812730401,0.0089708686,0.2418234092,-0.4484926719,9.6197443416
1520616727203599714,0.0758976812,-0.0874091045,0.0167504124,0.2141643518,-0.4736724666,9.5828495075
1520616727208615714,0.0869561469,-0.0874091431,0.0183531519,0.1456179922,-0.4592774429,9.6276641339
1520616727213631714,0.0957534093,-0.0862408874,0.0186162548,0.1528333985,-0.4328969156,9.6810268000
1520616727218645714,0.1065710555,-0.0754459567,0.0151613432,0.1155537994,-0.4089112036,9.6127997767
1520616727223660714,0.1153733008,-0.0663913797,0.0084502762,0.0987178514,-0.3561477138,9.6303443559
1520616727228677714,0.1251818862,-0.0561694138,0.0012051428,0.0710587940,-0.3009851001,9.6549648056
1520616727233691714,0.1349947370,-0.0436200139,-0.0046694765,0.0638433877,-0.2626120446,9.6747540643
1520616727238706714,0.1448053453,-0.0322339668,-0.0113646258,0.0866921743,-0.2182456285,9.6500833796
1520616727243723714,0.1536069711,-0.0249335243,-0.0159246642,0.0782742003,-0.2026561474,9.6675822729
1520616727248738714,0.1626586217,-0.0179214542,-0.0215695760,0.1335923151,-0.1834742089,9.6972408737
1520616727253753714,0.1724635924,-0.0129560647,-0.0245259906,0.2273925967,-0.1954729186,9.6661238299
1520616727258770714,0.1802553890,-0.0144215902,-0.0202228401,0.2803055761,-0.2170615673,9.6818998709
1520616727263785714,0.1867928045,-0.0138457309,-0.0167134321,0.3163826074,-0.2218609388,9.6954991240
1520616727268801714,0.1955967433,-0.0118215324,-0.0096800125,0.3055594980,-0.2002755682,9.6990698532
1520616727273814714,0.2046416899,-0.0159097547,-0.0051286575,0.2935338209,-0.1726944019,9.6642956904
1520616727278831714,0.2141866820,-0.0220382003,-0.0003232517,0.2622670604,-0.1618997029,9.6552923462
1520616727283846714,0.2197167891,-0.0235046118,0.0039840993,0.2923312532,-0.1379192360,9.6677599165
1520616727288863714,0.2255034719,-0.0220614501,0.0099364898,0.3392313940,-0.1115417994,9.6661155498
1520616727293877714,0.2335491155,-0.0229499355,0.0164079869,0.3717007222,-0.1115443282,9.6925288243
1520616727298893714,0.2380772342,-0.0238419845,0.0236976558,0.3921443734,-0.1307321672,9.6679435247
1520616727303907714,0.2431073821,-0.0238538556,0.0288286934,0.4005623473,-0.1739018781,9.7306594590
1520616727308923714,0.2478867996,-0.0247458062,0.0361178956,0.4017649151,-0.2110753248,9.7004682607
1520616727313940714,0.2496491335,-0.0273901591,0.0444815435,0.3536622065,-0.2098724380,9.7520696276
1520616727318955714,0.2504045158,-0.0300290784,0.0506826912,0.3753084254,-0.2158698260,9.7565133591
1520616727323969714,0.2531721823,-0.0306246046,0.0558134831,0.3512570711,-0.2146688124,9.8299613600
1520616727328986714,0.2529283127,-0.0274296713,0.0596260463,0.3115723366,-0.1810897898,9.8593684842
1520616727334001714,0.2529337228,-0.0239352423,0.0604643610,0.3055594980,-0.1163357386,9.8500667136
1520616727339016714,0.2516814980,-0.0201448220,0.0594134112,0.2586593572,-0.0287948350,9.8643835764
1520616727344032714,0.2464092486,-0.0125534095,0.0529879111,0.2237848935,0.0239700598,9.8716444359
1520616727349048714,0.2456631107,-0.0011642132,0.0436069052,0.1949232684,0.1019164352,9.8927679414
1520616727354062714,0.2436578010,0.0105260734,0.0304428135,0.1744796173,0.2062432442,9.8951894827
1520616727359079714,0.2368709528,0.0181394765,0.0156331910,0.2117592164,0.2482102556,9.8750292519
1520616727364093714,0.2328520377,0.0263272621,0.0043399773,0.2141643518,0.2997731065,9.9226034623
1520616727369109714,0.2288321934,0.0318838457,-0.0037266934,0.2442285447,0.2805845182,9.9653288716
1520616727374124714,0.2235574899,0.0412395909,-0.0160908647,0.2586593572,0.2398126199,9.9292017059
1520616727379139714,0.2140085421,0.0459176696,-0.0233422990,0.2658747635,0.2338163558,9.9337858981
1520616727384156714,0.2067251494,0.0511692055,-0.0268058451,0.3103697689,0.2314146095,9.9531115969
1520616727389172714,0.1991864080,0.0526290019,-0.0289450952,0.3620801805,0.2098260545,9.9886557901
1520616727394187714,0.1888825405,0.0523343092,-0.0291987285,0.4089803213,0.2002292784,10.0230729663
1520616727399202714,0.1785745801,0.0485408168,-0.0286674012,0.4246137016,0.2014272013,10.0984589882
1520616727404216714,0.1660131905,0.0467679192,-0.0213526643,0.4594881653,0.2026236256,10.1074155239
1520616727409233714,0.1539566449,0.0476220499,-0.0156421285,0.4234111339,0.1702496439,10.1043118159
1520616727414249714,0.1396354618,0.0461434898,-0.0096746310,0.3981572119,0.1630567682,10.1405911007
1520616727419263714,0.1243138780,0.0478683088,-0.0031397209,0.4186008630,0.1378732271,10.1136873599
1520616727424278714,0.1107476459,0.0466792433,0.0036402372,0.3596750451,0.1426743782,10.0642840403
1520616727429295714,0.0951647388,0.0434613534,0.0060796332,0.3187877429,0.1414784222,10.0588724618
1520616727434310714,0.0823439195,0.0387883523,0.0082322339,0.2779004406,0.1594687130,10.0185778552
1520616727439325714,0.0695236333,0.0364551686,0.0071560685,0.2526465187,0.1954448925,9.9815999747
1520616727444341714,0.0551971812,0.0349940908,0.0066304645,0.2983440917,0.2062335973,9.9381453322
1520616727449356714,0.0418763282,0.0367517485,0.0012576214,0.2875209823,0.1906456147,9.9359415912
1520616727454371714,0.0298127181,0.0393855088,-0.0046519778,0.2670773312,0.2314179813,9.9605058426
1520616727459387714,0.0167476058,0.0437628119,-0.0089230963,0.2634696281,0.2362148240,9.9628605683
1520616727464403714,0.0031762027,0.0463959816,-0.0148298951,0.2730901698,0.1786553344,9.9697959199
1520616727469418714,-0.0111509002,0.0478640462,-0.0210147321,0.3043569303,0.1450769674,9.9439571629
1520616727474433714,-0.0209476380,0.0510668930,-0.0215131677,0.3356236908,0.1354814088,9.9901479444
1520616727479449714,-0.0294908769,0.0507677904,-0.0198762469,0.3729032900,0.1570630330,9.9572240088
1520616727484465714,-0.0395447237,0.0487212468,-0.0187909559,0.3175851752,0.2014355370,9.9495841681
1520616727489481714,-0.0513613983,0.0452229188,-0.0198778805,0.2815081438,0.1894469426,9.9267041341
1520616727494496714,-0.0619220180,0.0417265399,-0.0215082306,0.2742927375,0.1894475045,9.9651251150
1520616727499511714,-0.0712223994,0.0426087055,-0.0258130269,0.2766978729,0.2074344236,9.9418412857
1520616727504525714,-0.0817785302,0.0429025108,-0.0282261145,0.2851158469,0.2242217339,9.9138515246
1520616727509542714,-0.0908275265,0.0431990921,-0.0314536401,0.2766978729,0.2158284065,9.9244009410
1520616727514557714,-0.0978676220,0.0446721972,-0.0384636497,0.2766978729,0.1882481768,9.9116442523
1520616727519573714,-0.1061585859,0.0481750321,-0.0419386675,0.2863184146,0.1606671978,9.9220368022
1520616727524589714,-0.1129480922,0.0470163053,-0.0454520549,0.3091672012,0.1654619799,9.9543497595
1520616727529604714,-0.1189778958,0.0496436874,-0.0481263048,0.3464468003,0.1474719701,9.9040322528
1520616727534619714,-0.1262696077,0.0473126697,-0.0492127381,0.3476493680,0.1102985233,9.8354903040
1520616727539635714,-0.1318021377,0.0458601369,-0.0516484986,0.3632827482,0.0707256718,9.8121338474
1520616727544650714,-0.1358197160,0.0449698395,-0.0462367824,0.3692955868,0.0335518503,9.8574351858
1520616727549666714,-0.1403400253,0.0434943907,-0.0400169412,0.3765109931,-0.0072194860,9.8643775768
1520616727554680714,-0.1436041893,0.0428986868,-0.0356865856,0.3608776128,0.0311542251,9.7959258303
1520616727559697714,-0.1458650516,0.0402607714,-0.0302914750,0.3308134200,0.0347539879,9.7683234938
1520616727564712714,-0.1458664669,0.0364603892,-0.0257210949,0.2863184146,0.0143720661,9.7443714366
1520616727569728714,-0.1431071939,0.0332584277,-0.0265623205,0.2839132792,-0.0036148529,9.7176830759
1520616727574743714,-0.1463820411,0.0277222986,-0.0271395835,0.2478362478,-0.0000146219,9.6680585295
1520616727579758714,-0.1453788256,0.0262657698,-0.0271525658,0.2033412424,-0.0227948245,9.6545681066
1520616727584774714,-0.1426195095,0.0227709669,-0.0274549227,0.2574567895,-0.0371887243,9.5727053344
1520616727589789714,-0.1386066396,0.0198718087,-0.0323544472,0.2394182738,-0.0527761449,9.5484910886
1520616727594804714,-0.1373565671,0.0157958313,-0.0334700876,0.2610644926,-0.0575743924,9.6156894243
1520616727599821714,-0.1345984390,0.0114268748,-0.0337791137,0.3211928783,-0.1079429732,9.6221261474
1520616727604835714,-0.1318357828,0.0090917826,-0.0319082111,0.3548647743,-0.0911576298,9.5973770120
1520616727609851714,-0.1295798171,0.0032576938,-0.0292514144,0.3512570711,-0.1127418764,9.6346217819
1520616727614867714,-0.1260673142,-0.0028687440,-0.0260580825,0.3584724774,-0.1127424384,9.6020115208
1520616727619883714,-0.1220528331,-0.0107491196,-0.0207146555,0.3753084254,-0.0875618007,9.6180931092
1520616727624898714,-0.1210488374,-0.0160133149,-0.0134517987,0.3476493680,-0.1487158081,9.6672320079
1520616727629913714,-0.1190358162,-0.0174847469,-0.0077851841,0.3187877429,-0.1535101220,9.6988954934
1520616727634929714,-0.1167638436,-0.0142982987,-0.0004601915,0.2815081438,-0.1451132356,9.6887908692
1520616727639944714,-0.1152474806,-0.0113991597,0.0052407028,0.2779004406,-0.1223292865,9.6969387746
1520616727644960714,-0.1122208116,-0.0047026900,0.0077211462,0.2442285447,-0.0863524514,9.6972314360
1520616727649974714,-0.1099530063,-0.0000389230,0.0074819691,0.2430259770,-0.0359884599,9.6913833090
1520616727654989714,-0.1031597992,0.0057906974,0.0077843752,0.2959389563,-0.0024166491,9.7256998637
1520616727660006714,-0.1011456253,0.0084132173,0.0080711951,0.2803055761,0.0479484663,9.6921007425
1520616727665021714,-0.0948634643,0.0075386114,0.0091350413,0.2766978729,0.0527453089,9.7130497715
1520616727670034714,-0.0875767235,0.0063737432,0.0099242517,0.2358105707,0.0671381785,9.6611372334
1520616727675051714,-0.0823032744,0.0040469199,0.0090850281,0.2021386747,0.0335648691,9.6591734286
1520616727680068714,-0.0745229490,-0.0014783213,0.0060523162,0.1720744819,0.0131818234,9.6315944788
1520616727685084714,-0.0669845525,-0.0005953866,0.0038806166,0.1756821850,0.0107832616,9.6338859902
1520616727690099714,-0.0581893522,0.0011651077,0.0006310691,0.2177720550,0.0095808430,9.6067481717
1520616727695114714,-0.0516610360,-0.0020339201,-0.0007582491,0.2285951644,0.0011860171,9.6066510115
1520616727700130714,-0.0421167849,-0.0061110191,-0.0002660160,0.2670773312,-0.0443843161,9.6342123395
1520616727705144714,-0.0353352801,-0.0087308215,-0.0002986253,0.2983440917,-0.0815601044,9.6746192960
1520616727710159714,-0.0275485409,-0.0131065500,0.0026295648,0.2959389563,-0.1427160786,9.6723780545
1520616727715176714,-0.0222733825,-0.0166098380,0.0058396374,0.2718876021,-0.1391167842,9.6935272388
1520616727720190714,-0.0187542816,-0.0183676932,0.0098779532,0.3115723366,-0.1247301899,9.7303155464
1520616727725207714,-0.0129750319,-0.0215830419,0.0144420448,0.3007492272,-0.1115388023,9.7815423631
1520616727730222714,-0.0084515275,-0.0239232723,0.0184740476,0.2911286855,-0.1115380530,9.7583931245
1520616727735237714,-0.0066885702,-0.0233500121,0.0222628692,0.2682798989,-0.1007440096,9.7144435262
1520616727740253714,-0.0049320345,-0.0268532216,0.0249383841,0.2875209823,-0.0731652785,9.7514179571
1520616727745268714,-0.0024205046,-0.0303597778,0.0289652283,0.2730901698,-0.0827572779,9.7492434846
1520616727750284714,0.0000946360,-0.0300732362,0.0311271513,0.2550516541,-0.0767601709,9.7238460467
1520616727755298714,-0.0011626070,-0.0309493389,0.0316639074,0.2261900290,-0.0827536252,9.7136735192
1520616727760315714,0.0003517801,-0.0280436441,0.0349298887,0.2370131384,-0.0635682214,9.7786295257
1520616727765330714,-0.0021547865,-0.0239681590,0.0360478627,0.2514439509,-0.0479805198,9.8028788866
1520616727770345714,-0.0031559752,-0.0198840704,0.0341870315,0.2394182738,-0.0407847406,9.8111239288
1520616727775361714,-0.0018984186,-0.0166674219,0.0301509634,0.1877078622,-0.0132004835,9.7964924801
1520616727780376714,-0.0039058101,-0.0117022892,0.0255932094,0.0818819034,-0.0131922414,9.8196032602
1520616727785392714,-0.0071712756,-0.0064397084,0.0186050991,0.1335923151,0.0407650502,9.8143987466
1520616727790407714,-0.0069165347,-0.0000116680,0.0121604387,0.1636565079,0.0587498151,9.8303585955
1520616727795423714,-0.0099249854,0.0081590290,0.0073584597,0.1191615025,0.0359696125,9.8749753703
1520616727800439714,-0.0101735517,0.0119549422,0.0044118216,0.1275794765,0.0323715356,9.8481676320
1520616727805452714,-0.0126881630,0.0125447394,0.0014449302,0.1877078622,0.0455573972,9.8382723648
1520616727810469714,-0.0144433423,0.0142872584,0.0033553570,0.1973284039,0.0095824353,9.8126466375
1520616727815485714,-0.0164573867,0.0107862142,0.0046851433,0.2225823258,-0.0419825698,9.8194239766
1520616727820499714,-0.0182161296,0.0099062725,0.0065755624,0.2021386747,-0.0587689435,9.8382336366
1520616727825516714,-0.0212288615,0.0098956214,0.0100982597,0.2225823258,-0.0575713953,9.8403577692
1520616727830531714,-0.0219819700,0.0090146166,0.0125279037,0.2273925967,-0.0683640338,9.8170785940
1520616727835547714,-0.0229885767,0.0066773191,0.0146763530,0.2502413832,-0.0767597963,9.7738650570
1520616727840563714,-0.0262563475,0.0037519958,0.0184478321,0.2634696281,-0.0731634053,9.8353264229
1520616727845578714,-0.0300288683,0.0005409186,0.0200536544,0.2310002998,-0.0311909616,9.8425743963
1520616727850593714,-0.0325404100,-0.0003429607,0.0232982031,0.2406208415,-0.0323908513,9.7797261516
1520616727855607714,-0.0340468034,-0.0023970833,0.0284258139,0.2346080030,-0.0947456850,9.7961154979
1520616727860623714,-0.0375642421,-0.0029863298,0.0303217231,0.1985309716,-0.0767557689,9.8196919886
1520616727865639714,-0.0388172628,-0.0012421570,0.0316901247,0.1816950236,-0.0719578960,9.8256619018
1520616727870654714,-0.0425877567,-0.0018256745,0.0314221335,0.2045438101,-0.0827519393,9.8022071507
1520616727875671714,-0.0428352370,-0.0024238390,0.0370996179,0.2394182738,-0.0683649704,9.8378801346
1520616727880686714,-0.0468568220,-0.0073986189,0.0443740322,0.2382157061,-0.0863519831,9.8809087060
1520616727885701714,-0.0508825391,-0.0141158785,0.0494707408,0.2670773312,-0.1055404777,9.8655386227
1520616727890716714,-0.0546572632,-0.0202466285,0.0532186994,0.1841001590,-0.1223219811,9.8582276347
1520616727895732714,-0.0569195329,-0.0237579691,0.0583365949,0.1420102891,-0.1163230008,9.8365507298
1520616727900748714,-0.0594316430,-0.0237618674,0.0594234458,0.0746664971,-0.1391014239,9.8488498700
1520616727905762714,-0.0611897194,-0.0217170374,0.0572779072,0.0662485231,-0.1379016279,9.8326606207
1520616727910779714,-0.0624428655,-0.0176308620,0.0546059051,0.1071358254,-0.1139220039,9.8403742696
1520616727915794714,-0.0634511344,-0.0176210578,0.0508201294,0.1396051536,-0.1031322689,9.7889133751
1520616727920808714,-0.0644565493,-0.0176207232,0.0505514504,0.1372000182,-0.1319114517,9.7506140988
1520616727925826714,-0.0604340979,-0.0170392926,0.0516306126,0.1468205599,-0.1127259542,9.7783932039
1520616727930841714,-0.0551566892,-0.0164522707,0.0508136199,0.1420102891,-0.1055307370,9.7400822576
1520616727935855714,-0.0541541754,-0.0176137728,0.0494501312,0.1227692057,-0.0755507279,9.7472131687
1520616727940871714,-0.0506413981,-0.0196433449,0.0461814847,0.1432128568,-0.0923402860,9.7853813040
1520616727945886714,-0.0433552218,-0.0184647536,0.0423891996,0.1408077214,-0.1031323625,9.7819288063
1520616727950902714,-0.0380776288,-0.0146586617,0.0364562888,0.1552385339,-0.1139257503,9.7539074148
1520616727955916714,-0.0312920311,-0.0137796645,0.0356387188,0.1792898882,-0.1199233256,9.7374091450
1520616727960934714,-0.0232497590,-0.0111445836,0.0321266948,0.2394182738,-0.1403133958,9.7426544907
1520616727965948714,-0.0126920405,-0.0088093722,0.0321248771,0.2598619249,-0.1966745879,9.7390240318
1520616727970963714,-0.0041422075,-0.0056051655,0.0337567378,0.2370131384,-0.2158590551,9.7299679857
1520616727975980714,0.0039014211,-0.0047307751,0.0348306555,0.2261900290,-0.2158582122,9.7045061642
1520616727980995714,0.0134532818,-0.0038572508,0.0364428647,0.2322028675,-0.2182569613,9.7276928567
1520616727986011714,0.0247665237,-0.0006490473,0.0369874078,0.2971415240,-0.2470413891,9.7143052643
1520616727991026714,0.0363290338,-0.0015317837,0.0418290954,0.2791030083,-0.2854124778,9.7156804029
1520616727996041714,0.0463876673,0.0007915758,0.0461569455,0.2550516541,-0.2638260770,9.7135691681
1520616728001056714,0.0582009939,0.0002032361,0.0499182059,0.2670773312,-0.2626278731,9.6913702130
1520616728006072714,0.0685030972,-0.0024232007,0.0528550673,0.2418234092,-0.2170585702,9.7148144634
1520616728011087714,0.0810732685,-0.0006794403,0.0563621663,0.2502413832,-0.2278514896,9.7356616432
1520616728016103714,0.0896212511,0.0001893196,0.0595995177,0.2201771904,-0.2422388332,9.7324818698
1520616728021117714,0.1004341810,0.0042678375,0.0615043931,0.2057463779,-0.2386402880,9.7546995576
1520616728026134714,0.1084788250,0.0071877471,0.0604295052,0.2213797581,-0.2374423652,9.7324654874
1520616728031150714,0.1140115352,0.0103958713,0.0601731454,0.1877078622,-0.2266474789,9.7699713115
1520616728036165714,0.1228174226,0.0185602693,0.0594074188,0.1925181330,-0.2122581684,9.8024504899
1520616728041181714,0.1296111551,0.0238027501,0.0613286540,0.1624539402,-0.1834764568,9.8131743478
1520616728046196714,0.1351416229,0.0258475215,0.0602517641,0.1504282631,-0.1966660648,9.8179528369
1520616728051211714,0.1401720883,0.0296396748,0.0594596921,0.1384025859,-0.1247167028,9.8121890073
1520616728056226714,0.1441938850,0.0316867692,0.0573034189,0.1552385339,-0.0863455205,9.7562048079
1520616728061241714,0.1472063973,0.0316981487,0.0535101757,0.1275794765,-0.0503691536,9.7331960649
1520616728066257714,0.1499677011,0.0325872255,0.0483713390,0.1251743411,-0.0395767025,9.7599382619
1520616728071271714,0.1534829013,0.0334765977,0.0432311021,0.1780873205,-0.0036066108,9.7919281900
1520616728076289714,0.1562456947,0.0331899383,0.0418710156,0.2117592164,0.0311658390,9.8031879771
1520616728081303714,0.1575028083,0.0349445652,0.0397176533,0.1853027267,0.0347653207,9.8197119957
1520616728086320714,0.1580080483,0.0378629780,0.0381156753,0.1504282631,0.0143826497,9.8816649507
1520616728091336714,0.1597708802,0.0407782409,0.0378640932,0.1516308308,-0.0000071291,9.8584243986
1520616728096350714,0.1592712817,0.0457439642,0.0333035389,0.1588462370,0.0035897303,9.8548642284
1520616728101366714,0.1580182649,0.0489516155,0.0322481429,0.1468205599,0.0059889477,9.8933296907
1520616728106380714,0.1547498434,0.0489554346,0.0303603890,0.1335923151,0.0155831013,9.8771790763
1520616728111396714,0.1514874945,0.0539149759,0.0276987899,0.1672642110,0.0503555511,9.9186546062
1520616728116413714,0.1482250947,0.0562404016,0.0293459174,0.1985309716,0.0383617118,9.9381184154
1520616728121427714,0.1472275520,0.0608977897,0.0310066290,0.1780873205,0.0431598657,9.9499341635
1520616728126443714,0.1427055374,0.0620622840,0.0307533765,0.1949232684,0.0095826226,9.8986687002
1520616728131459714,0.1401930784,0.0629376383,0.0299530753,0.1949232684,-0.0096036242,9.8824173943
1520616728136474714,0.1371777590,0.0641063656,0.0283442929,0.1853027267,0.0119816527,9.8824899867
1520616728141489714,0.1318955165,0.0620718906,0.0256330735,0.1985309716,-0.0000107818,9.8649407651
1520616728146505714,0.1278719164,0.0588599865,0.0275099084,0.2129617841,0.0095812177,9.8694395255
1520616728151520714,0.1215729486,0.0472043293,0.0266210154,0.2358105707,0.0203717019,9.8587473098
1520616728156535714,0.1172901736,0.0378717948,0.0289927241,0.2021386747,0.0131794819,9.8707035070
1520616728161551714,0.1117495480,0.0302994585,0.0267808246,0.1877078622,0.0023883420,9.8371523170
1520616728166566714,0.1062117764,0.0227176527,0.0280860218,0.1877078622,0.0059857633,9.8115816420
1520616728171581714,0.0986685814,0.0171674665,0.0321159733,0.2045438101,-0.0072060926,9.8521056724
1520616728176598714,0.0931333581,0.0101626022,0.0355899838,0.1744796173,0.0191773382,9.8512104294
1520616728181613714,0.0858350403,0.0005360449,0.0385061618,0.1865052944,0.0251721037,9.8906004265
1520616728186629714,0.0790445068,-0.0070586366,0.0444129728,0.1865052944,0.0359643675,9.8940763344
1520616728191644714,0.0720098881,-0.0099941779,0.0514380035,0.1841001590,0.0515533803,9.8824631035
1520616728196659714,0.0642181229,-0.0132119294,0.0549451146,0.1432128568,0.0551539860,9.8468311048
1520616728201674714,0.0579324805,-0.0170089455,0.0573627957,0.0722613617,0.0935320055,9.8277278371
1520616728206690714,0.0524001191,-0.0210963224,0.0595063076,0.0602356846,0.1091217676,9.7627496248
1520616728211706714,0.0486254892,-0.0248857980,0.0594844083,0.0758690649,0.0959300054,9.7649346097
1520616728216720714,0.0405796181,-0.0269235413,0.0575899606,0.0927050128,0.1079200984,9.7728940532
1520616728221736714,0.0358069633,-0.0257613307,0.0581488125,0.1059332577,0.1402958596,9.8192194836
1520616728226753714,0.0317881187,-0.0240131420,0.0576285267,0.0927050128,0.1343011877,9.8193540859
1520616728231767714,0.0247539078,-0.0222668631,0.0573843876,0.0770716326,0.0695488224,9.8776765937
1520616728236783714,0.0197289034,-0.0199304717,0.0547060478,0.0638433877,0.0839395378,9.8963856205
1520616728241799714,0.0154573213,-0.0143725296,0.0460987520,0.0927050128,0.1055218175,9.8995700829
1520616728246814714,0.0134484792,-0.0099879808,0.0407249142,0.0915024451,0.0935305070,9.8717020264
1520616728251829714,0.0096830545,-0.0032708595,0.0345604904,0.0818819034,0.0635527457,9.8334741499
1520616728256845714,0.0066649712,-0.0012148670,0.0280885512,0.1095409608,0.0731437149,9.7878719647
1520616728261860714,0.0044020116,-0.0000407454,0.0245845474,0.0939075805,0.0419672814,9.7729466618
1520616728266876714,0.0016359721,0.0014274776,0.0200015165,0.1347948828,0.0443623779,9.7957892303
1520616728271890714,-0.0021356195,0.0008476023,0.0183807958,0.1636565079,0.0575506747,9.8396569165
1520616728276907714,-0.0043996848,-0.0009015910,0.0183716578,0.2165694873,0.0479534302,9.8240433773
1520616728281922714,-0.0064099892,-0.0014880614,0.0194531290,0.2105566487,0.0467547581,9.8299137917
1520616728286938714,-0.0066667413,-0.0046897475,0.0180764123,0.1768847527,0.0527530827,9.8453435580
1520616728291953714,-0.0091810978,-0.0073204771,0.0207665308,0.2105566487,0.1067117793,9.8670439313
1520616728296969714,-0.0119511950,-0.0125708522,0.0223549246,0.2382157061,0.1234975910,9.8353804575
1520616728301983714,-0.0137165360,-0.0178193766,0.0234003597,0.2165694873,0.1546769279,9.8320743138
1520616728306999714,-0.0129706881,-0.0227682476,0.0217378917,0.2093540810,0.2002448260,9.8437215488
1520616728312016714,-0.0164901458,-0.0230580968,0.0206600191,0.1865052944,0.1378913035,9.8091404319
1520616728317030714,-0.0177488393,-0.0245147833,0.0203806914,0.1937207007,0.1043148097,9.8335079661
1520616728322044714,-0.0180044898,-0.0262566330,0.0179329066,0.1913155653,0.1043149970,9.8602606871
1520616728327061714,-0.0177510778,-0.0242146576,0.0171363638,0.1672642110,0.1199056957,9.8488581473
1520616728332077714,-0.0152367252,-0.0230474065,0.0168700430,0.1564411016,0.1007202919,9.8443336264
1520616728337092714,-0.0182491788,-0.0174977133,0.0115069644,0.1672642110,0.1115117127,9.8825685073
1520616728342106714,-0.0222672667,-0.0119469571,0.0056046608,0.1432128568,0.1199075689,9.8990644385
1520616728347123714,-0.0225148646,-0.0072761619,0.0023941462,0.1792898882,0.0983202315,9.8824643195
1520616728352138714,-0.0232628648,-0.0026128480,0.0018900239,0.1841001590,0.1139086823,9.8661322825
1520616728357155714,-0.0245149093,0.0029331638,-0.0018530464,0.1828975913,0.1270993207,9.8417261018
1520616728362169714,-0.0267725019,0.0078945558,-0.0050576042,0.1853027267,0.1007180440,9.8487012809
1520616728367185714,-0.0280241543,0.0122684736,-0.0063746538,0.1828975913,0.0995190909,9.8371044208
1520616728372199714,-0.0277681470,0.0160580278,-0.0068873122,0.2153669196,0.1199019493,9.8251470660
1520616728377216714,-0.0290268366,0.0160648198,-0.0095904375,0.2754953052,0.1306895301,9.8036326979
1520616728382231714,-0.0292776532,0.0157704231,-0.0085100103,0.2502413832,0.1187000927,9.8155116370
1520616728387247714,-0.0295299714,0.0122613270,-0.0039369404,0.2322028675,0.1246971998,9.8180056541
1520616728392263714,-0.0282726892,0.0113811098,-0.0015110302,0.2237848935,0.1079098895,9.7809153537
1520616728397277714,-0.0257598343,0.0107971400,-0.0007085059,0.2237848935,0.0743339576,9.7948938226
1520616728402292714,-0.0262660857,0.0072966866,0.0006184800,0.2201771904,0.0791308003,9.7949242605
1520616728407309714,-0.0232499313,0.0064178870,0.0027705772,0.2346080030,0.0719348338,9.8238444147
1520616728412325714,-0.0224945882,0.0055352877,0.0060090586,0.2418234092,0.1019127824,9.8132856553
1520616728417340714,-0.0217464979,0.0017497695,0.0051671206,0.1997335393,0.0995177797,9.8032383753
1520616728422354714,-0.0184836629,-0.0020405916,0.0064848826,0.2045438101,0.0875260008,9.7660146420
1520616728427371714,-0.0164769261,-0.0055400605,0.0078072012,0.2346080030,0.1079090465,9.7540806972
1520616728432386714,-0.0149733123,-0.0084525866,0.0075116242,0.1744796173,0.1235025550,9.7314078696
1520616728437401714,-0.0119588711,-0.0096184001,0.0080382229,0.2153669196,0.1282959323,9.7658695389
1520616728442416714,-0.0064303400,-0.0093233927,0.0074890863,0.1913155653,0.1211029629,9.7637863682
1520616728447432714,-0.0059292791,-0.0093180967,0.0055943316,0.1889104299,0.1582765034,9.7614492409
1520616728452447714,-0.0026638919,-0.0110680377,0.0066571093,0.1756821850,0.1738663591,9.7789949544
1520616728457463714,0.0016080117,-0.0113584769,0.0069174978,0.1732770496,0.1558794401,9.7616037453
1520616728462478714,0.0026113174,-0.0119372100,0.0055584552,0.1636565079,0.1426896447,9.7605481045
1520616728467493714,0.0051235608,-0.0113483574,0.0036644129,0.1744796173,0.1127102912,9.7744177199
1520616728472508714,0.0088935725,-0.0104705417,0.0028524436,0.1696693465,0.1055158233,9.8012008671
1520616728477525714,0.0114103048,-0.0060915049,0.0001756637,0.1624539402,0.1283000533,9.7826545768
1520616728482540714,0.0156845882,-0.0031701584,-0.0019744069,0.2033412424,0.1258985880,9.8264204138
1520616728487556714,0.0197023782,-0.0052075464,-0.0022679820,0.2129617841,0.1342918217,9.8344535956
1520616728492572714,0.0237237750,-0.0049153150,-0.0020026806,0.2177720550,0.1151052003,9.8251283332
1520616728497586714,0.0254881436,-0.0020051511,-0.0003604414,0.1804924559,0.1462857548,9.8115150597
1520616728502601714,0.0297633052,0.0009132816,-0.0014283284,0.1648590756,0.1043170575,9.8175188721
1520616728507617714,0.0330352512,0.0052882432,-0.0024832331,0.1720744819,0.1019182147,9.7953702453
1520616728512633714,0.0345466549,0.0090819318,-0.0043509546,0.1588462370,0.1223046322,9.7803712507
1520616728517648714,0.0365586725,0.0099554161,-0.0038069274,0.2334054352,0.1282945274,9.8203147289
1520616728522663714,0.0360528170,0.0067463473,-0.0024777184,0.2418234092,0.1390861356,9.8516001562
1520616728527680714,0.0388144617,0.0038292144,-0.0008818078,0.2706850343,0.1570709941,9.8536259827
1520616728532695714,0.0385599011,-0.0008432345,0.0028707321,0.2322028675,0.1654679742,9.8005337372
1520616728537710714,0.0378063496,-0.0031862610,0.0071830819,0.1997335393,0.1414876945,9.8520074945
1520616728542727714,0.0367965321,-0.0075617933,0.0087748779,0.1997335393,0.1127083243,9.8392519752
1520616728547741714,0.0347899678,-0.0052336900,0.0096080341,0.1732770496,0.0731387509,9.8430345065
1520616728552755714,0.0347945900,-0.0008585515,0.0080181050,0.1432128568,0.0911281987,9.8386610170
1520616728557772714,0.0342934468,0.0011853138,0.0064113246,0.1648590756,0.1079144788,9.8035696366
1520616728562788714,0.0320380025,0.0049687844,0.0077971547,0.1889104299,0.0959212014,9.8103200926
1520616728567803714,0.0302787774,0.0043831409,0.0086076133,0.2045438101,0.0791320179,9.8357514646
1520616728572818714,0.0295244340,0.0014573454,0.0129155170,0.1949232684,0.0899250309,9.8439695887
1520616728577834714,0.0287719371,-0.0005964819,0.0180417276,0.2093540810,0.0647419581,9.7950436380
1520616728582849714,0.0270147780,-0.0003108856,0.0199410390,0.1997335393,0.0083831075,9.8219215484
1520616728587865714,0.0245042086,0.0011435957,0.0204979134,0.1372000182,-0.0024042860,9.7946492805
1520616728592881714,0.0252603045,0.0026000852,0.0207781746,0.1323897474,0.0131849142,9.7737623081
1520616728597896714,0.0222500895,0.0078496527,0.0186594236,0.1215666379,-0.0215893152,9.7460101095
1520616728602911714,0.0217459550,0.0078545548,0.0167665358,0.1636565079,-0.0000080657,9.7455793845
1520616728607927714,0.0212411149,0.0066910051,0.0159469392,0.1877078622,0.0167780271,9.7464910565
1520616728612943714,0.0192337547,0.0069728608,0.0191994468,0.1865052944,0.0083841378,9.7221059239
1520616728617958714,0.0179807302,0.0072535550,0.0229916461,0.1720744819,0.0203766659,9.7570990098
1520616728622973714,0.0162242768,0.0087076032,0.0238176663,0.1816950236,0.0083845124,9.7767735100
1520616728627988714,0.0152199165,0.0089971370,0.0243628480,0.1949232684,0.0347645715,9.7963754761
1520616728633004714,0.0159713471,0.0063713295,0.0256941696,0.2454311124,0.0431546207,9.7830920949
1520616728638019714,0.0152140594,0.0025772078,0.0278310368,0.2346080030,0.0611425700,9.8099092113
1520616728643036714,0.0137065683,0.0005267273,0.0316059181,0.1624539402,0.0779361555,9.7885144088
1520616728648050714,0.0147125516,-0.0003535883,0.0340322950,0.1732770496,0.0983206998,9.7895513285
1520616728653065714,0.0149594125,-0.0015095583,0.0305058393,0.1756821850,0.0947230912,9.8069635857
1520616728658081714,0.0134514000,-0.0015094206,0.0302380937,0.1600488048,0.0911268875,9.7757413727
1520616728663096714,0.0129513114,0.0008236440,0.0294451742,0.1865052944,0.1163067759,9.7371085548
1520616728668112714,0.0126979465,-0.0000476944,0.0283567881,0.1949232684,0.1007172948,9.7591225560
1520616728673126714,0.0127009809,0.0016984275,0.0291817643,0.2322028675,0.1246971998,9.7552498806
1520616728678143714,0.0167201352,0.0008273061,0.0286265356,0.2382157061,0.1546752420,9.7632971295
1520616728683158714,0.0172230426,0.0017045703,0.0275500879,0.1720744819,0.1486846912,9.7813789136
1520616728688174714,0.0162160870,0.0002465254,0.0278113852,0.1828975913,0.1079130739,9.7638811663
1520616728693190714,0.0164666370,-0.0006289866,0.0283453410,0.1696693465,0.1007192616,9.7675033698
1520616728698205714,0.0194855671,0.0019953841,0.0280892022,0.1444154245,0.1175091944,9.7630842294
1520616728703220714,0.0202376210,0.0025871897,0.0248456975,0.1540359662,0.1199067260,9.7629882503
1520616728708236714,0.0199880825,0.0040447423,0.0245867337,0.1251743411,0.1079175696,9.7179572508
1520616728713251714,0.0202394675,0.0034591579,0.0256640044,0.1143512317,0.0731433402,9.7541229698
1520616728718267714,0.0247556799,-0.0000276714,0.0226529215,0.1384025859,0.0791371691,9.7538830219
1520616728723281714,0.0252527341,-0.0041068579,0.0226208649,0.1372000182,0.1366960031,9.7619736064
1520616728728299714,0.0265045199,-0.0078958214,0.0231307230,0.1853027267,0.1247008525,9.7708142492
1520616728733313714,0.0282577585,-0.0128515829,0.0241718470,0.2045438101,0.1055131072,9.7694835337
1520616728738329714,0.0295125355,-0.0146015830,0.0249678126,0.1768847527,0.1294980698,9.8045936819
1520616728743344714,0.0302592615,-0.0195533678,0.0243875282,0.1684667787,0.1390918488,9.8302334295
1520616728748360714,0.0310125856,-0.0201365699,0.0246522277,0.1804924559,0.1306969293,9.8254759885
1520616728753374714,0.0347828561,-0.0210158025,0.0270734707,0.1624539402,0.1498845809,9.7593906496
1520616728758392714,0.0367952736,-0.0183874551,0.0251959234,0.1708719142,0.1774641551,9.8383076083
1520616728763406714,0.0360455562,-0.0154746336,0.0254901003,0.1792898882,0.1846583420,9.7987057624
1520616728768422714,0.0385599520,-0.0146002239,0.0257626482,0.1696693465,0.2002479168,9.8406213838
1520616728773436714,0.0393107749,-0.0145897305,0.0219736055,0.1359974505,0.1894582754,9.8479325131
1520616728778453714,0.0398155719,-0.0131333394,0.0222543334,0.1311871796,0.2062466160,9.8479629626
1520616728783468714,0.0398185671,-0.0096308976,0.0201166433,0.1095409608,0.1738715104,9.8563402335
1520616728788483714,0.0405739220,-0.0061230615,0.0160837317,0.0806793357,0.1654797753,9.8391971809
1520616728793499714,0.0398234637,-0.0011588934,0.0120647358,0.0806793357,0.1810686008,9.8519655630
1520616728798514714,0.0388197307,0.0038117321,0.0056112937,0.0854896066,0.1546871369,9.8310258770
1520616728803528714,0.0365581354,0.0061521202,0.0018456363,0.0530202783,0.1774733337,9.8348061280
1520616728808544714,0.0353012100,0.0090800418,-0.0035407171,0.0915024451,0.2194402514,9.8541470865
1520616728813560714,0.0345491209,0.0117080347,-0.0056836763,0.1047306900,0.2086469574,9.8644881505
1520616728818577714,0.0330386503,0.0120090265,-0.0094662955,0.1359974505,0.2050471009,9.8618630392
1520616728823591714,0.0327807573,0.0091038239,-0.0127346103,0.1155537994,0.1834641655,9.8434887700
1520616728828606714,0.0315202173,0.0067751692,-0.0138322450,0.1275794765,0.1894589310,9.8526630243
1520616728833622714,0.0305151553,0.0073597297,-0.0146375696,0.1468205599,0.1750677474,9.8060040173
1520616728838638714,0.0297594985,0.0059017833,-0.0143767390,0.1372000182,0.1558822499,9.8223863826
1520616728843653714,0.0295049418,0.0026928129,-0.0130479967,0.1588462370,0.1642745470,9.8093839227
1520616728848669714,0.0297487605,-0.0031362361,-0.0125518333,0.1432128568,0.1762671688,9.7804707962
1520616728853683714,0.0282346282,-0.0092624578,-0.0101608047,0.1516308308,0.1858596366,9.7978116654
1520616728858700714,0.0284812186,-0.0130518150,-0.0096490798,0.1576436693,0.1810626066,9.7931092416
1520616728863715714,0.0259630828,-0.0168407985,-0.0096733127,0.1239717734,0.1606798419,9.7620789752
1520616728868731714,0.0277180856,-0.0188754304,-0.0113154167,0.1444154245,0.1438902837,9.7932742468
1520616728873745714,0.0277134674,-0.0217870903,-0.0121492852,0.1480231276,0.1666736708,9.7537040197
1520616728878762714,0.0254454465,-0.0249866504,-0.0146044517,0.1155537994,0.1978538506,9.7086660392
1520616728883776714,0.0274513521,-0.0273125684,-0.0162492456,0.1107435285,0.1690748551,9.7284973708
1520616728888793714,0.0259370082,-0.0305111046,-0.0189763581,0.1203640702,0.2014508972,9.7551014691
1520616728893807714,0.0246786244,-0.0310907238,-0.0203312002,0.1083383931,0.2062483955,9.8109967521
1520616728898823714,0.0249310680,-0.0299236303,-0.0208638663,0.1107435285,0.2086464891,9.8086467154
1520616728903838714,0.0256911234,-0.0255532955,-0.0205613743,0.1263769088,0.1882598843,9.8061901406
1520616728908854714,0.0277083748,-0.0214774950,-0.0189107095,0.0999204191,0.1822662427,9.8331828095
1520616728913869714,0.0277029215,-0.0246790827,-0.0202878930,0.1179589348,0.1858622591,9.8062744146
1520616728918886714,0.0274481492,-0.0264238462,-0.0216534942,0.1384025859,0.1882589477,9.7595873318
1520616728923900714,0.0307149909,-0.0261297248,-0.0221984303,0.1011229868,0.2266343447,9.7575884818
1520616728928915714,0.0297051773,-0.0290417786,-0.0230304320,0.1480231276,0.2686006068,9.7501181940
1520616728933932714,0.0352334418,-0.0299166799,-0.0219651856,0.1708719142,0.2458151592,9.7568908791
1520616728938947714,0.0374960957,-0.0305043903,-0.0198094651,0.2069489456,0.2506089111,9.7728050654
1520616728943962714,0.0385023377,-0.0331417543,-0.0141498759,0.1925181330,0.2002461372,9.7846160779
1520616728948978714,0.0359901766,-0.0357797682,-0.0087542985,0.2069489456,0.2122364175,9.8170039546
1520616728953992714,0.0407636626,-0.0381155297,-0.0063460379,0.1937207007,0.2038434648,9.8276001911
1520616728959008714,0.0422745722,-0.0384179784,-0.0020223270,0.2057463779,0.2086390899,9.7786684171
1520616728964024714,0.0442844336,-0.0392935296,-0.0012210924,0.1648590756,0.2038457127,9.7848817862
1520616728969040714,0.0442833790,-0.0395827288,-0.0020349531,0.1720744819,0.2182348358,9.7592303568
1520616728974054714,0.0450381537,-0.0395853472,-0.0009541697,0.2069489456,0.2242278218,9.7925872381
1520616728979070714,0.0472997138,-0.0387059369,-0.0025749763,0.2538490864,0.2062370627,9.7712296898
1520616728984087714,0.0495602585,-0.0398720458,-0.0020469774,0.2442285447,0.2038395311,9.7236777668
1520616728989102714,0.0505659752,-0.0419222701,0.0019937826,0.2562542218,0.2110334370,9.7386615716
1520616728994117714,0.0515697552,-0.0457222585,0.0065622958,0.2502413832,0.2038390628,9.7608078481
1520616728999133714,0.0520666800,-0.0489229208,0.0049136330,0.2550516541,0.1678644755,9.7363910850
1520616729004146714,0.0525701559,-0.0489256376,0.0059948832,0.2237848935,0.1486806638,9.7274169743
1520616729009163714,0.0548321511,-0.0495111627,0.0073389660,0.1877078622,0.1882551076,9.6893787873
1520616729014178714,0.0543297769,-0.0480486095,0.0051866477,0.1588462370,0.1486857215,9.6955090166
1520616729019194714,0.0513124817,-0.0468733264,0.0011429522,0.1756821850,0.1786629208,9.6639380256
1520616729024209714,0.0503057535,-0.0454051427,-0.0031727998,0.2117592164,0.1474824600,9.7135894667
1520616729029225714,0.0467910983,-0.0395642619,-0.0085327219,0.2261900290,0.1522778978,9.7808486780
1520616729034241714,0.0450424819,-0.0302333619,-0.0111637750,0.2261900290,0.1510787574,9.7424990969
1520616729039256714,0.0445491677,-0.0232396018,-0.0113800334,0.2213797581,0.1522782724,9.7483554675
1520616729044271714,0.0422928453,-0.0194532174,-0.0110763869,0.2899261178,0.1450780913,9.7639653107
1520616729049286714,0.0382743928,-0.0188771227,-0.0091706519,0.2863184146,0.1714594616,9.7477046851
1520616729054301714,0.0352644326,-0.0168480821,-0.0056323930,0.3067620657,0.2206226267,9.7648899155
1520616729059319714,0.0342590569,-0.0186040674,-0.0029384056,0.3211928783,0.2110283794,9.7252459151
1520616729064333714,0.0307449584,-0.0180336031,0.0011307631,0.3175851752,0.2038338178,9.7183151826
1520616729069349714,0.0287359713,-0.0186244442,0.0038355097,0.2646721958,0.2014396580,9.7153461119
1520616729074364714,0.0272268571,-0.0200841428,0.0046388323,0.2225823258,0.1978455149,9.6971649936
1520616729079379714,0.0257184486,-0.0203753897,0.0043688636,0.2346080030,0.1786583315,9.7365795469
1520616729084395714,0.0222001356,-0.0194982439,0.0027587916,0.2033412424,0.2098384177,9.6892055734
1520616729089411714,0.0224519206,-0.0183289651,0.0014144878,0.2237848935,0.2661964253,9.6866273406
1520616729094427714,0.0191904068,-0.0130794961,-0.0007037964,0.2851158469,0.2530011040,9.6720975180
1520616729099442714,0.0166808959,-0.0098723372,-0.0017568589,0.2803055761,0.2625946021,9.7430257647
1520616729104456714,0.0146729281,-0.0069541805,-0.0036247155,0.2959389563,0.2649916653,9.7579791317
1520616729109473714,0.0124152493,-0.0014071057,-0.0079070107,0.2754953052,0.2805820830,9.7802436514
1520616729114488714,0.0121673847,0.0020937808,-0.0095031423,0.2730901698,0.2829805512,9.7767782910
1520616729119504714,0.0101575273,0.0044328105,-0.0127281746,0.2791030083,0.3177551552,9.7650644153
1520616729124518714,0.0078933798,0.0047327785,-0.0162388477,0.2706850343,0.3165566704,9.7721203838
1520616729129534714,0.0096519893,0.0050277660,-0.0173220752,0.2875209823,0.3093605166,9.7568556576
1520616729134549714,0.0088980497,0.0053203120,-0.0178595438,0.2947363886,0.3069616738,9.7463284704
1520616729139565714,0.0076407637,0.0047370507,-0.0178616563,0.2766978729,0.3069630787,9.7650983495
1520616729144581714,0.0083956285,0.0056122281,-0.0181269331,0.2406208415,0.3237538544,9.7433523953
1520616729149597714,0.0071386521,0.0059060340,-0.0192045600,0.2406208415,0.3033684672,9.7433722741
1520616729154611714,0.0096524755,0.0061969462,-0.0186659124,0.2370131384,0.3033687482,9.6922730553
1520616729159627714,0.0111610643,0.0082437846,-0.0210880642,0.2514439509,0.3165581689,9.7293083384
1520616729164643714,0.0114189651,0.0140759441,-0.0226673446,0.2682798989,0.3189551386,9.7744657431
1520616729169658714,0.0124334871,0.0207774537,-0.0223475346,0.2718876021,0.2817815045,9.7616832940
1520616729174673714,0.0172171387,0.0268962141,-0.0214980799,0.2718876021,0.2997686108,9.7616657539
1520616729179688714,0.0172263321,0.0330123754,-0.0203692115,0.2791030083,0.2865775042,9.7592840984
1520616729184705714,0.0182384743,0.0365020993,-0.0176389424,0.3163826074,0.3093582688,9.8135197900
1520616729189719714,0.0225113855,0.0353302222,-0.0146797642,0.3536622065,0.3273424717,9.8015179536
1520616729194735714,0.0265310181,0.0327013240,-0.0117312347,0.3440416648,0.3285423614,9.7690703940
1520616729199750714,0.0308031805,0.0306538364,-0.0082376339,0.3187877429,0.3201503453,9.7112171879
1520616729204765714,0.0325599357,0.0271498985,-0.0052915731,0.3199903106,0.3249468133,9.7344436846
1520616729209781714,0.0338145363,0.0251077854,-0.0042272848,0.2971415240,0.3153554694,9.7672154661
1520616729214798714,0.0353234270,0.0251047340,-0.0028773556,0.2634696281,0.3441374621,9.7419479765
1520616729219813714,0.0358256718,0.0245207050,-0.0023416435,0.2718876021,0.3081625938,9.7546847048
1520616729224828714,0.0383437606,0.0271390513,-0.0004324816,0.2466336801,0.2973722968,9.7874810657
1520616729229843714,0.0393556833,0.0306295035,0.0020272415,0.2466336801,0.2829826117,9.7921436736
1520616729234859714,0.0370975536,0.0317875997,0.0044752475,0.2851158469,0.3093607039,9.7882569545
1520616729239874714,0.0383519346,0.0297462150,0.0052689899,0.2766978729,0.2949716745,9.7860286341
1520616729244888714,0.0381038427,0.0303208728,0.0082499077,0.2297977321,0.2889796251,9.7981124175
1520616729249905714,0.0355879062,0.0279880836,0.0085073361,0.2273925967,0.2901789528,9.7702432034
1520616729254919714,0.0345805547,0.0262386542,0.0087664104,0.2057463779,0.2949772004,9.7762599368
1520616729259936714,0.0323162346,0.0277099878,0.0031002625,0.1372000182,0.3129696454,9.7908553124
1520616729264952714,0.0300569719,0.0320915245,-0.0011909250,0.1480231276,0.2961808365,9.8337656639
1520616729269967714,0.0293071292,0.0373463486,-0.0049371519,0.1636565079,0.2937813381,9.8080486699
1520616729274983714,0.0272979774,0.0408538302,-0.0092354754,0.2201771904,0.2733915489,9.8423827296
1520616729279998714,0.0255360747,0.0405697693,-0.0122104363,0.2502413832,0.2613978031,9.8153724857
1520616729285013714,0.0272918224,0.0379472693,-0.0119631652,0.2442285447,0.2793853778,9.7944948797
1520616729290028714,0.0250224763,0.0318251228,-0.0111940118,0.2646721958,0.2685915218,9.7838471222
1520616729295044714,0.0232615302,0.0280255083,-0.0071614564,0.2430259770,0.3117622629,9.8293393312
1520616729300060714,0.0222527281,0.0256954951,-0.0077184660,0.2165694873,0.3441411148,9.8365381340
1520616729305075714,0.0217448496,0.0213223450,-0.0069392411,0.2285951644,0.3477375995,9.9073083566
1520616729310091714,0.0189778339,0.0189887289,-0.0064108001,0.2129617841,0.3633276426,9.9492825033
1520616729315106714,0.0157141129,0.0198550467,-0.0039631503,0.2622670604,0.3465358366,9.8953603448
1520616729320121714,0.0134558969,0.0215988256,-0.0025928818,0.2502413832,0.2889780329,9.8455613337
1520616729325137714,0.0122035780,0.0230479716,0.0001260262,0.2033412424,0.3105662132,9.8855096772
1520616729330153714,0.0116993925,0.0204187581,0.0025418649,0.2165694873,0.3141626042,9.8830531257
1520616729335168714,0.0066736355,0.0204160606,0.0028217453,0.2021386747,0.3225577111,9.8611046658
1520616729340184714,0.0019031369,0.0233273068,0.0031233898,0.1696693465,0.3285559421,9.8393341205
1520616729345200714,0.0021525030,0.0230411197,0.0012268787,0.1564411016,0.3669294659,9.8278040177
1520616729350215714,0.0001429552,0.0262572168,-0.0030736679,0.0927050128,0.3681335703,9.8539903834
1520616729355228714,-0.0041303519,0.0271377093,-0.0060350692,0.0770716326,0.3705330687,9.9122474082
1520616729360245714,-0.0061446041,0.0280278292,-0.0122472218,0.1347948828,0.3681302922,9.9023907525
1520616729365261714,-0.0081569667,0.0294970759,-0.0171021987,0.1516308308,0.3717264022,9.9022233737
1520616729370275714,-0.0116775692,0.0280402318,-0.0176478718,0.1540359662,0.3621330915,9.8824528711
1520616729375291714,-0.0147001452,0.0248425617,-0.0209132758,0.1624539402,0.3537384529,9.8847034090
1520616729380307714,-0.0147099541,0.0184357442,-0.0223149132,0.1552385339,0.3465441723,9.8754835037
1520616729385322714,-0.0164779766,0.0120253239,-0.0226310999,0.1997335393,0.3633286728,9.8796826217
1520616729390339714,-0.0187410735,0.0111510126,-0.0229041145,0.1804924559,0.3669275927,9.8949742660
1520616729395354714,-0.0235201460,0.0097002321,-0.0258823671,0.1780873205,0.3549363758,9.8857122178
1520616729400369714,-0.0260365647,0.0076617411,-0.0267048991,0.1372000182,0.3249610496,9.8907879991
1520616729405383714,-0.0262899296,0.0067904028,-0.0277932852,0.1828975913,0.3357497543,9.9066026982
1520616729410400714,-0.0260417083,0.0053372208,-0.0291575969,0.2502413832,0.3321470881,9.8675999726
1520616729415414714,-0.0255409571,0.0044654494,-0.0299768372,0.2670773312,0.3009681259,9.9000065353
1520616729420430714,-0.0278064808,-0.0007912846,-0.0259544638,0.2682798989,0.3213534194,9.8697592087
1520616729425446714,-0.0288205205,-0.0077870924,-0.0251943133,0.2971415240,0.3069614865,9.8613573117
1520616729430461714,-0.0298322747,-0.0139123888,-0.0230747640,0.2634696281,0.3429383217,9.8523528215
1520616729435477714,-0.0300862630,-0.0180013402,-0.0195883239,0.1756821850,0.3405468780,9.8462367656
1520616729440493714,-0.0303364210,-0.0182979222,-0.0176962589,0.1576436693,0.3369508616,9.8557130011
1520616729445509714,-0.0326002235,-0.0203406853,-0.0168959823,0.1540359662,0.3237605979,9.8952738734
1520616729450523714,-0.0333567153,-0.0220885594,-0.0171784666,0.1732770496,0.3297548015,9.8892700260
1520616729455538714,-0.0346149658,-0.0220832242,-0.0193405001,0.1913155653,0.3009740264,9.8833117946
1520616729460555714,-0.0368775766,-0.0217883552,-0.0209573519,0.1937207007,0.2685970477,9.8879685324
1520616729465571714,-0.0381319145,-0.0200398119,-0.0212122257,0.1780873205,0.2733948270,9.8381438308
1520616729470584714,-0.0403920201,-0.0188751599,-0.0211991328,0.1732770496,0.2781917633,9.8474831253
1520616729475601714,-0.0426557717,-0.0182838073,-0.0247075828,0.1853027267,0.2410174736,9.8485644682
1520616729480616714,-0.0479302714,-0.0147827047,-0.0271060176,0.2502413832,0.2158304670,9.8770105501
1520616729485632714,-0.0504332352,-0.0098410787,-0.0230053695,0.2406208415,0.1990432504,9.8887420009
1520616729490647714,-0.0511811962,-0.0069340847,-0.0205468254,0.2141643518,0.2170324173,9.8610905171
1520616729495663714,-0.0516812888,-0.0060644986,-0.0189159474,0.2105566487,0.2506086301,9.8343635798
1520616729500678714,-0.0534427524,-0.0063500165,-0.0213498164,0.2237848935,0.2865818125,9.8074704331
1520616729505693714,-0.0544492689,-0.0078095182,-0.0205474273,0.2466336801,0.2757877692,9.8153935688
1520616729510709714,-0.0549463701,-0.0049009689,-0.0186304417,0.2875209823,0.2637931805,9.8254665858
1520616729515725714,-0.0534365974,-0.0034434555,-0.0186221266,0.2670773312,0.2865784408,9.8070490511
1520616729520739714,-0.0526811641,-0.0034482591,-0.0167297055,0.2430259770,0.2769871906,9.7863739157
1520616729525756714,-0.0504167029,-0.0014076814,-0.0167183444,0.2538490864,0.2506052583,9.7572406968
1520616729530771714,-0.0484101817,-0.0034429432,-0.0180903693,0.2971415240,0.2278182185,9.7765979795
1520616729535786714,-0.0458962290,-0.0040305552,-0.0159351155,0.2959389563,0.2038355037,9.7650116318
1520616729540801714,-0.0413709644,-0.0049131346,-0.0121625433,0.3320159877,0.2374086258,9.7320877079
1520616729545817714,-0.0396130644,-0.0072500775,-0.0097486820,0.3680930191,0.2422023777,9.7119754316
1520616729550832714,-0.0373498421,-0.0087177690,-0.0054352636,0.3284082846,0.2541968727,9.7204850127
1520616729555848714,-0.0345888991,-0.0113398751,-0.0051898594,0.3163826074,0.1978382094,9.7241434541
1520616729560864714,-0.0308198596,-0.0128004199,-0.0033141544,0.2935338209,0.1906451464,9.7139135706
1520616729565879714,-0.0278035719,-0.0130942652,-0.0019692487,0.2875209823,0.2002387381,9.6849091423
1520616729570894714,-0.0262957358,-0.0133865158,-0.0014331803,0.2815081438,0.2062349085,9.6861239649
1520616729575910714,-0.0235331659,-0.0151359253,-0.0006400151,0.3019517949,0.2242204226,9.7230960454
1520616729580926714,-0.0202632467,-0.0133885235,0.0001788937,0.3115723366,0.2218213925,9.7113833040
1520616729585941714,-0.0167448867,-0.0130950321,-0.0000959632,0.3115723366,0.2122282691,9.7009333632
1520616729590956714,-0.0132300040,-0.0160096843,0.0006869095,0.3079646335,0.2278173756,9.6928182693
1520616729595972714,-0.0099617118,-0.0151349792,0.0009580572,0.3127749043,0.2422066860,9.6695145379
1520616729600988714,-0.0066930237,-0.0139688896,0.0012314281,0.3019517949,0.2410083886,9.6533510374
1520616729606002714,-0.0046827232,-0.0148458977,0.0025737545,0.3055594980,0.2146270183,9.6730980949
1520616729611017714,-0.0016641029,-0.0130985944,0.0033931300,0.3091672012,0.2601940734,9.6741806888
1520616729616034714,0.0023561060,-0.0136805166,0.0036517622,0.3428390971,0.2517974679,9.6878068600
1520616729621048714,0.0048734891,-0.0122306221,0.0066342152,0.3151800397,0.2529987625,9.7008584905
1520616729626065714,0.0086476329,-0.0096103267,0.0079999516,0.3308134200,0.2613915279,9.6972117075
1520616729631080714,0.0106611442,-0.0084491000,0.0098989314,0.3356236908,0.2685859958,9.7099414547
1520616729636096714,0.0139314122,-0.0075809508,0.0126049923,0.3091672012,0.2446052479,9.6590880188
1520616729641111714,0.0169491074,-0.0070013709,0.0142271131,0.2875209823,0.2482043550,9.6604573457
1520616729646126714,0.0189659627,-0.0032169549,0.0158755548,0.2887235500,0.2290180146,9.6813829413
1520616729651142714,0.0204803538,0.0011522184,0.0167177385,0.2875209823,0.2542000571,9.6430193397
1520616729656157714,0.0227484688,0.0066930527,0.0154030471,0.2490388155,0.2494064926,9.6387500031
1520616729661173714,0.0250178580,0.0125223578,0.0151727624,0.2839132792,0.2386115126,9.6802582628
1520616729666188714,0.0272900189,0.0203913545,0.0149580393,0.3404339617,0.2493993744,9.7145619198
1520616729671203714,0.0300568190,0.0241891776,0.0117352547,0.3235980137,0.2961671622,9.6681944281
1520616729676219714,0.0323221152,0.0265196830,0.0122899306,0.3235980137,0.2937688813,9.7193311008
1520616729681235714,0.0350891231,0.0259263421,0.0166090849,0.3656878837,0.2997613053,9.7014834178
1520616729686251714,0.0343342151,0.0253440061,0.0163354930,0.3656878837,0.2829733394,9.7084726523
1520616729691265714,0.0360965178,0.0273829301,0.0168888793,0.3344211231,0.2865731958,9.6948277483
1520616729696281714,0.0368514688,0.0276724247,0.0177013399,0.3175851752,0.2901719283,9.6926638232
1520616729701296714,0.0368512022,0.0265025160,0.0193157229,0.3139774720,0.3009644731,9.6903641264
1520616729706312714,0.0376057534,0.0250371476,0.0225497581,0.3127749043,0.2781808987,9.7031816324
1520616729711328714,0.0373549329,0.0232792723,0.0260539829,0.2779004406,0.2913741595,9.7395346789
1520616729716343714,0.0376044244,0.0206510826,0.0281978756,0.2706850343,0.3501326022,9.7221154523
1520616729721357714,0.0358435252,0.0180221052,0.0303455021,0.3067620657,0.3477315116,9.7391987986
1520616729726374714,0.0348400863,0.0180158840,0.0325117361,0.2983440917,0.3225502183,9.7834667603
1520616729731390714,0.0330843346,0.0191749054,0.0346882627,0.3019517949,0.2985671289,9.7776443122
1520616729736405714,0.0345896617,0.0165493933,0.0360181841,0.2574567895,0.3189559815,9.7722468007
1520616729741420714,0.0343398604,0.0183005157,0.0349498057,0.2682798989,0.2901757684,9.7988988303
1520616729746435714,0.0330806377,0.0159674903,0.0354754465,0.2586593572,0.2913756581,9.8164234607
1520616729751451714,0.0348408233,0.0145010588,0.0392487065,0.2538490864,0.3417399305,9.7931782896
1520616729756467714,0.0355972288,0.0168346157,0.0384534533,0.2201771904,0.3009717786,9.7633300459
1520616729761482714,0.0338464562,0.0244164801,0.0360796076,0.2297977321,0.3021701697,9.7423166450
1520616729766498714,0.0338523093,0.0293729308,0.0350352164,0.2514439509,0.2865796584,9.7467697312
1520616729771512714,0.0348580810,0.0314203006,0.0323434522,0.2382157061,0.2961738120,9.7329434046
1520616729776528714,0.0356142239,0.0340474273,0.0307387844,0.2454311124,0.3093637947,9.7479681830
1520616729781543714,0.0366179255,0.0337600788,0.0293819649,0.2225823258,0.3165604168,9.7481835630
1520616729786559714,0.0361147555,0.0331763844,0.0296489981,0.2189746227,0.2937770297,9.7714837747
1520616729791574714,0.0371174456,0.0323069952,0.0280171866,0.2502413832,0.3393419307,9.7734592963
1520616729796590714,0.0378670297,0.0288092194,0.0285302012,0.2863184146,0.3429365421,9.7707803486
1520616729801606714,0.0366173061,0.0320059442,0.0315329936,0.2718876021,0.3465350873,9.7929980364
1520616729806621714,0.0386230353,0.0293879132,0.0301565226,0.2466336801,0.3405413521,9.7723310981
1520616729811637714,0.0426356386,0.0253188463,0.0268713810,0.2261900290,0.3129627145,9.8132320173
1520616729816653714,0.0413749653,0.0224052372,0.0265809379,0.2791030083,0.3093611722,9.8371255259
1520616729821667714,0.0423755463,0.0209574495,0.0233214048,0.2803055761,0.2553997595,9.7941671148
1520616729826683714,0.0411118857,0.0174683557,0.0203210566,0.2658747635,0.2709897089,9.7350230324
1520616729831698714,0.0400974539,0.0116446419,0.0186551864,0.2430259770,0.2506061013,9.7492110347
1520616729836714714,0.0416006717,0.0084407313,0.0183573862,0.2382157061,0.2554030376,9.7434424578
1520616729841730714,0.0413458092,0.0058181721,0.0183378452,0.2634696281,0.2530027899,9.7304154068
1520616729846745714,0.0428537747,0.0046473972,0.0204905196,0.3103697689,0.2961681924,9.7531596924
1520616729851760714,0.0415904590,-0.0011844277,0.0218011210,0.2947363886,0.3093599546,9.7858390261
1520616729856776714,0.0400764600,-0.0067256951,0.0233849581,0.2851158469,0.3153564060,9.8138182748
1520616729861791714,0.0388154731,-0.0119798500,0.0265938270,0.2839132792,0.3117590784,9.8370763670
1520616729866807714,0.0375520280,-0.0169331508,0.0262878222,0.2502413832,0.3165582626,9.8618044542
1520616729871823714,0.0360436195,-0.0172243977,0.0260178536,0.2346080030,0.2973732334,9.8329217305
1520616729876838714,0.0315206836,-0.0157641482,0.0241435488,0.2213797581,0.3177596509,9.7877069932
1520616729881853714,0.0307676261,-0.0140110374,0.0222644662,0.2117592164,0.3045698555,9.7517870338
1520616729886868714,0.0285103824,-0.0099288980,0.0209470604,0.1816950236,0.2973773545,9.7915995707
1520616729891884714,0.0255007438,-0.0026323545,0.0161384121,0.1853027267,0.2901822309,9.8194629264
1520616729896899714,0.0245036049,0.0052433751,0.0129537515,0.1997335393,0.2733931411,9.8239874123
1520616729901914714,0.0224992008,0.0107839925,0.0111059027,0.2213797581,0.2602009105,9.8470324631
1520616729906931714,0.0187344228,0.0131084929,0.0130245095,0.2105566487,0.2841845620,9.8378172702
1520616729911946714,0.0164705811,0.0128220497,0.0108621197,0.2574567895,0.3081637177,9.8268780906
1520616729916962714,0.0182264150,0.0096138669,0.0121871282,0.2791030083,0.3153568743,9.8115525122
1520616729921976714,0.0152036586,0.0046606054,0.0116138446,0.2562542218,0.3213543560,9.8524440999
1520616729926991714,0.0167067863,0.0005788990,0.0126621047,0.2406208415,0.3273512757,9.8235368201
1520616729932007714,0.0151876437,-0.0072868887,0.0117932440,0.2285951644,0.3477375995,9.8352554315
1520616729937023714,0.0124153080,-0.0122371381,0.0101373102,0.2261900290,0.3381446634,9.8562067875
1520616729942038714,0.0114134097,-0.0107849799,0.0117735679,0.2081515133,0.3261546641,9.9063662467
1520616729947054714,0.0121645384,-0.0113608977,0.0093328085,0.1949232684,0.3285539752,9.9355462625
1520616729952068714,0.0106601366,-0.0075676621,0.0072001417,0.2009361070,0.3273543665,9.9471103461
1520616729957085714,0.0101541125,-0.0081418869,0.0039500783,0.1961258361,0.3477401283,9.9192458327
1520616729962100714,0.0073876692,-0.0098920055,0.0042124196,0.2394182738,0.3657238629,9.9199690545
1520616729967115714,0.0068803200,-0.0133888167,0.0041866760,0.2586593572,0.3741163473,9.9232600201
1520616729972129714,0.0043659674,-0.0145560678,0.0044529968,0.2225823258,0.3873097018,9.9538140519
1520616729977146714,0.0008474309,-0.0151416721,0.0049961766,0.1816950236,0.3789189032,9.9635173608
1520616729982162714,0.0005971436,-0.0145597300,0.0052716354,0.2081515133,0.3897091065,9.9597628937
1520616729987178714,-0.0001626453,-0.0177601561,0.0033547603,0.2285951644,0.4136903228,9.9386219297
1520616729992193714,-0.0011676603,-0.0160049584,0.0006645068,0.2069489456,0.4268825533,9.9504411976
1520616729997208714,-0.0011717924,-0.0177474382,-0.0015131989,0.1853027267,0.3945074478,9.9530077486
1520616730002223714,-0.0021746981,-0.0154138420,-0.0025757309,0.1937207007,0.4112947581,9.9087479722
1520616730007240714,-0.0046858360,-0.0130793798,-0.0041765544,0.1768847527,0.4364780182,9.9274815902
1520616730012255714,-0.0039300891,-0.0107436376,-0.0057834452,0.1901129976,0.4196890220,9.9448013646
1520616730017269714,-0.0039250278,-0.0063699560,-0.0068322826,0.2009361070,0.4196881791,9.9202909961
1520616730022285714,-0.0074381972,-0.0031682899,-0.0059896568,0.2129617841,0.3777173277,9.8958098493
1520616730027301714,-0.0099473592,-0.0008403835,-0.0051555672,0.1973284039,0.3789176857,9.9122308611
1520616730032316714,-0.0104518504,-0.0028831858,-0.0040880118,0.2009361070,0.3477397537,9.8889832697
1520616730037332714,-0.0117105909,-0.0055105094,-0.0024824105,0.2081515133,0.3225572428,9.8773161559
1520616730042348714,-0.0142196196,-0.0025976487,-0.0024555125,0.2249874613,0.3369456167,9.8399496465
1520616730047363714,-0.0132121818,-0.0014339021,-0.0016368493,0.2093540810,0.3285528513,9.8238399823
1520616730052378714,-0.0142180358,-0.0014321106,-0.0024466201,0.1949232684,0.3297531156,9.8286278494
1520616730057394714,-0.0164779258,-0.0017316655,0.0002608163,0.2261900290,0.3369455230,9.8190193503
1520616730062410714,-0.0162218754,0.0017650472,0.0002870266,0.2153669196,0.3129635575,9.8551745451
1520616730067425714,-0.0187343344,0.0026404016,-0.0005132746,0.2213797581,0.3369458976,9.8109311628
1520616730072440714,-0.0199874884,0.0037996199,0.0016623185,0.2213797581,0.3237553530,9.7784039948
1520616730077456714,-0.0194789984,0.0069999476,0.0035796603,0.1961258361,0.3573332517,9.7681577639
1520616730082471714,-0.0207352690,0.0084622054,0.0014287421,0.2129617841,0.3561328000,9.8086701009
1520616730087487714,-0.0197271766,0.0081602883,0.0054828406,0.2225823258,0.3645260337,9.8352975860
1520616730092503714,-0.0224898838,0.0078612649,0.0079206645,0.2165694873,0.3537342382,9.7795837255
1520616730097518714,-0.0207321131,0.0064028461,0.0087179197,0.2105566487,0.3225570555,9.7634026383
1520616730102532714,-0.0224886057,0.0096132142,0.0065812736,0.1877078622,0.3069700095,9.7950181225
1520616730107548714,-0.0229919953,0.0090302482,0.0065777608,0.1925181330,0.3033722136,9.7938126664
1520616730112563714,-0.0227405631,0.0096153010,0.0057701026,0.1564411016,0.3117690064,9.7348862910
1520616730117579714,-0.0229899684,0.0116578080,0.0047039473,0.1215666379,0.2997803183,9.7793989013
1520616730122593714,-0.0260022102,0.0142798157,0.0044590099,0.1949232684,0.3141642901,9.7856437245
1520616730127611714,-0.0232373899,0.0166207161,0.0012251099,0.1865052944,0.3333511925,9.7508426319
1520616730132626714,-0.0219764540,0.0192407554,0.0023249676,0.1720744819,0.3321531760,9.7812000047
1520616730137641714,-0.0242282052,0.0247681626,0.0053474116,0.2141643518,0.3417430213,9.8040238521
1520616730142656714,-0.0239730800,0.0270971519,0.0061763672,0.2081515133,0.3441417704,9.8087286145
1520616730147672714,-0.0224659065,0.0253436081,0.0083245955,0.2237848935,0.3645259401,9.8143672898
1520616730152687714,-0.0222088015,0.0291295201,0.0091646666,0.2069489456,0.3657263917,9.8656643252
1520616730157703714,-0.0242174790,0.0294157464,0.0107938989,0.1889104299,0.3849140434,9.8170111455
1520616730162719714,-0.0254731381,0.0297051818,0.0113395474,0.1516308308,0.3765229639,9.8185443316
1520616730167735714,-0.0254694882,0.0317419597,0.0124372925,0.1347948828,0.3837191177,9.8187011864
1520616730172749714,-0.0252177463,0.0332040798,0.0105541200,0.1672642110,0.3801191676,9.7986322107
1520616730177765714,-0.0237075305,0.0361236149,0.0086797292,0.1877078622,0.3765201541,9.8181931799
1520616730182781714,-0.0247055593,0.0396118226,0.0116842780,0.1901129976,0.3345500520,9.8414535758
1520616730187796714,-0.0239509611,0.0393170913,0.0130333842,0.1865052944,0.3801176690,9.8437685440
1520616730192812714,-0.0236987410,0.0390214347,0.0146539698,0.1744796173,0.3657289205,9.8032245882
1520616730197827714,-0.0236941267,0.0404696161,0.0179116360,0.1889104299,0.3597320945,9.7833335270
1520616730202841714,-0.0236911354,0.0425085794,0.0181977434,0.1804924559,0.3381482225,9.7845986545
1520616730207858714,-0.0246948410,0.0413324494,0.0219783605,0.1396051536,0.3129694581,9.7861833264
1520616730212874714,-0.0244410370,0.0422023309,0.0236078384,0.1720744819,0.3117677888,9.7626255802
1520616730217890714,-0.0241835792,0.0465724688,0.0239112639,0.1372000182,0.2997791007,9.7467067049
1520616730222903714,-0.0251838034,0.0500679609,0.0242103537,0.1456179922,0.2877870409,9.7570957584
1520616730227920714,-0.0256866637,0.0503613338,0.0234018726,0.1420102891,0.2590079517,9.7769153850
1520616730232935714,-0.0256820063,0.0515166739,0.0271984074,0.1347948828,0.2829913221,9.7850972362
1520616730237950714,-0.0241739467,0.0526871733,0.0255812241,0.1095409608,0.3045778166,9.7620791152
1520616730242967714,-0.0209047724,0.0550224432,0.0245107578,0.1167563671,0.3177677993,9.7619960221
1520616730247981714,-0.0196476628,0.0553135915,0.0247811931,0.1299846119,0.3501435605,9.7467278229
1520616730252996714,-0.0186450628,0.0535664066,0.0244954418,0.1359974505,0.3645327772,9.7036559393
1520616730258012714,-0.0178908135,0.0541509279,0.0239573960,0.1215666379,0.3465467948,9.7363539708
1520616730263028714,-0.0148738632,0.0553183759,0.0236901418,0.1179589348,0.3609367609,9.7770500923
1520616730268043714,-0.0123651834,0.0532847678,0.0217760917,0.0915024451,0.3621379618,9.7087399409
1520616730273058714,-0.0106089927,0.0521242895,0.0201406569,0.0337791949,0.3249691044,9.7221216166
1520616730278074714,-0.0078460699,0.0509591059,0.0203971765,0.1071358254,0.3309590932,9.7434824966
1520616730283089714,-0.0050825747,0.0503774199,0.0203875964,0.1215666379,0.3201657055,9.6933803699
1520616730288105714,-0.0043302190,0.0489193357,0.0209161726,0.1480231276,0.2925834152,9.7105819128
1520616730293120714,-0.0023223805,0.0468797033,0.0211674231,0.1588462370,0.3021756957,9.7313858038
1520616730298135714,-0.0000628943,0.0439609166,0.0233053589,0.1335923151,0.3105716455,9.7502177278
1520616730303150714,0.0004359201,0.0413393812,0.0230138718,0.1131486640,0.2961835526,9.7399714503
1520616730308166714,0.0029466189,0.0390063759,0.0240736035,0.1095409608,0.2662053230,9.7098200561
1520616730313183714,0.0031954557,0.0378438499,0.0229820608,0.0963127160,0.2805960384,9.7378262346
1520616730318198714,0.0039518142,0.0390067697,0.0240717366,0.1107435285,0.3321579527,9.7655269472
1520616730323212714,0.0039473724,0.0363872227,0.0229695452,0.1095409608,0.3117726591,9.7562613794
1520616730328230714,0.0064615486,0.0372623608,0.0229715472,0.0866921743,0.3249649833,9.7204444501
1520616730333244714,0.0064590865,0.0360997364,0.0218804713,0.1107435285,0.3537424803,9.7655058991
1520616730338260714,0.0069595750,0.0355215349,0.0202518163,0.1047306900,0.3381541231,9.7818496411
1520616730343276714,0.0087161146,0.0334818039,0.0205035336,0.0890973097,0.3369562002,9.7575979532
1520616730348290714,0.0099701899,0.0320268304,0.0199489927,0.1011229868,0.3621372125,9.7702399300
1520616730353305714,0.0089594590,0.0308740103,0.0150721412,0.1035281222,0.3309593742,9.7574633392
1520616730358321714,0.0102092688,0.0270916027,0.0131470862,0.0578305492,0.3237680907,9.7602394353
1520616730363337714,0.0091984477,0.0250609868,0.0096162948,0.0782742003,0.2925888475,9.7705301477
1520616730368352714,0.0081954557,0.0279802657,0.0074760254,0.1071358254,0.2698029316,9.8039736185
1520616730373367714,0.0081931740,0.0285732328,0.0036928290,0.1023255545,0.2997818169,9.7598297350
1520616730378383714,0.0074329461,0.0253742635,0.0012348622,0.0854896066,0.2793977409,9.8227692581
1520616730383399714,0.0061688424,0.0204231480,0.0001172198,0.0987178514,0.2530156213,9.8517198268
