#timestamp [ns],w_RS_S_x [rad s^-1],w_RS_S_y [rad s^-1],w_RS_S_z [rad s^-1],a_RS_S_x [m s^-2],a_RS_S_y [m s^-2],a_RS_S_z [m s^-2]
1520622050781215201,0.0858453980,-0.0012545113,0.0541844852,-0.0720467638,0.1319157383,10.2904661748
1520622050786232201,0.0594265286,-0.0175481464,0.0413933413,0.0373868980,0.1415003386,10.3579581533
1520622050791248201,0.0345073486,-0.0428879513,0.0336708534,0.1756821850,0.1546801124,10.3728692244
1520622050796263201,0.0126027824,-0.0705649353,0.0286304391,0.2442285447,0.2266231992,10.4453469450
1520622050801278201,-0.0077904273,-0.0956188677,0.0236072322,0.2863184146,0.2829795210,10.4193151421
1520622050806296201,-0.0221489484,-0.1192186137,0.0204777607,0.3223954460,0.3429337323,10.3352311587
1520622050811311201,-0.0375182867,-0.1433854970,0.0113937002,0.4137905922,0.3729051248,10.2796915751
1520622050816327201,-0.0481070157,-0.1661066988,0.0071817134,0.4679061393,0.3776974717,10.2315122681
1520622050821342201,-0.0576884794,-0.1864927884,0.0016329150,0.5015780352,0.4016776577,10.2114046925
1520622050826358201,-0.0637458239,-0.2039702102,-0.0014652736,0.5665166917,0.4256554086,10.1840199217
1520622050831373201,-0.0692967916,-0.2202891814,-0.0018500443,0.5593012855,0.4688250258,10.1201301383
1520622050836389201,-0.0713318181,-0.2377701269,-0.0030618793,0.5268319572,0.5095983290,10.0553263559
1520622050841406201,-0.0693360820,-0.2500140453,-0.0007240696,0.5099960092,0.5203919040,10.0159668082
1520622050846421201,-0.0670910700,-0.2634219465,0.0010632893,0.4173982953,0.5323905201,9.9238848878
1520622050851435201,-0.0613259337,-0.2736152267,-0.0001074369,0.3464468003,0.5252012035,9.7235315981
1520622050856452201,-0.0517830391,-0.2759316352,-0.0042011455,0.3091672012,0.4808359113,9.6565333710
1520622050861469201,-0.0407249183,-0.2735889426,-0.0069093556,0.3163826074,0.4484585579,9.6134953865
1520622050866483201,-0.0314232039,-0.2686215647,-0.0106764745,0.3115723366,0.4268744049,9.5519696253
1520622050871499201,-0.0165907119,-0.2607323481,-0.0165959976,0.3392313940,0.4592490422,9.5772360038
1520622050876516201,-0.0025053851,-0.2478898899,-0.0224763280,0.4077777536,0.4556462823,9.5126544062
1520622050881530201,0.0130925294,-0.2318430681,-0.0277939131,0.4570830299,0.4568415826,9.4703361472
1520622050886547201,0.0292011764,-0.2114325657,-0.0303736264,0.5232242541,0.4640312739,9.4313346025
1520622050891563201,0.0473185870,-0.1918939724,-0.0335048345,0.5941757491,0.5179870670,9.4119970807
1520622050896578201,0.0649309301,-0.1764451574,-0.0328785898,0.6699375151,0.5479596770,9.3903118375
1520622050901593201,0.0845576156,-0.1610086666,-0.0273862528,0.7180402236,0.5875275646,9.4351286612
1520622050906609201,0.1009195686,-0.1452878986,-0.0197212581,0.7709532029,0.6354890605,9.4299182893
1520622050911624201,0.1200459381,-0.1304445717,-0.0104447913,0.7986122603,0.6474783105,9.4122052203
1520622050916640201,0.1374091699,-0.1179300965,-0.0022650256,0.7913968541,0.6678642597,9.4250391554
1520622050921657201,0.1527610467,-0.1048278125,0.0037585528,0.7505095518,0.6450837761,9.4150000492
1520622050926673201,0.1668558530,-0.0937729967,0.0124743622,0.7204453590,0.6294972921,9.4827122264
1520622050931688201,0.1814506617,-0.0844655628,0.0209053538,0.6819631922,0.6330977105,9.5737305086
1520622050936704201,0.1915170341,-0.0780701042,0.0279697860,0.6879760307,0.6163092762,9.6562005748
1520622050941719201,0.1988106317,-0.0766234381,0.0328371926,0.6951914370,0.6055164505,9.7409773772
1520622050946736201,0.2045981496,-0.0748903488,0.0393328980,0.6470887285,0.6103167586,9.7890888042
1520622050951750201,0.2093772221,-0.0734395683,0.0423111505,0.5665166917,0.6223144380,9.8049692210
1520622050956767201,0.2103814491,-0.0743140565,0.0425731603,0.5015780352,0.6223194956,9.8439520445
1520622050961782201,0.2101288801,-0.0731391472,0.0390654227,0.4534753267,0.6103318378,9.9071877137
1520622050966798201,0.2103769289,-0.0734209637,0.0355456362,0.4558804621,0.6271196164,9.9722279943
1520622050971814201,0.2086178371,-0.0734216528,0.0355489033,0.4149931599,0.6223262392,9.9203341656
1520622050976829201,0.2071117181,-0.0713789097,0.0342145357,0.3861315348,0.6451121550,9.9391871728
1520622050981845201,0.2058543497,-0.0699130098,0.0307108881,0.3211928783,0.6019481574,9.8817541443
1520622050986861201,0.2013333936,-0.0669958377,0.0288476987,0.2947363886,0.6115433413,9.8575972778
1520622050991878201,0.1950562037,-0.0626253459,0.0280810754,0.2069489456,0.5851690892,9.8259374417
1520622050996892201,0.1902898961,-0.0524105473,0.0214041037,0.1155537994,0.5264183266,9.8117764522
1520622051001908201,0.1840137294,-0.0430675793,0.0136410796,0.1311871796,0.4844471942,9.8325838045
1520622051006925201,0.1762310988,-0.0293391371,0.0002327382,0.0999204191,0.5012375953,9.8723846597
1520622051011940201,0.1661917851,-0.0153354935,-0.0074877157,0.1372000182,0.5024338323,9.8522641864
1520622051016955201,0.1546391389,-0.0039483455,-0.0176602902,0.1420102891,0.4664592449,9.7813616651
1520622051021971201,0.1423246417,0.0048306150,-0.0332623902,0.1287820442,0.4568671518,9.8163640941
1520622051026986201,0.1295084250,0.0136064648,-0.0477813731,0.1335923151,0.4544684963,9.9069668409
1520622051032001201,0.1124199479,0.0206250495,-0.0596003013,0.1720744819,0.4712534651,9.9495752347
1520622051037019201,0.0953268917,0.0229756543,-0.0692904317,0.3187877429,0.5180085151,10.0294516904
1520622051042034201,0.0799927391,0.0206443997,-0.0714441134,0.3825238317,0.5791597127,10.0148259586
1520622051047050201,0.0626476666,0.0174360186,-0.0727890929,0.4438547850,0.6966706976,9.9594936397
1520622051052064201,0.0458071206,0.0130506414,-0.0698151639,0.4570830299,0.7230507566,9.8222061720
1520622051057081201,0.0304893670,0.0185678299,-0.0648746290,0.4342342433,0.7038662894,9.8143122698
1520622051062097201,0.0164276254,0.0243798089,-0.0610163883,0.4414496496,0.7494330635,9.7897925815
1520622051067113201,0.0013592301,0.0266838533,-0.0531247692,0.4618933007,0.7722151394,9.7454099079
1520622051072128201,-0.0152228114,0.0240308563,-0.0441859587,0.4871472227,0.8105856660,9.7091002202
1520622051077144201,-0.0267672641,0.0289514555,-0.0335754070,0.5340473635,0.8309674005,9.7434881629
1520622051082159201,-0.0368056448,0.0306586744,-0.0197455589,0.5111985769,0.8501554268,9.8250419263
1520622051087176201,-0.0468595582,0.0201241011,-0.0046563508,0.4306265402,0.8381702978,9.7967842597
1520622051092192201,-0.0606693503,0.0230070362,0.0048606562,0.3981572119,0.7746183842,9.7425415053
1520622051097207201,-0.0664364742,0.0288164368,0.0108678622,0.2815081438,0.7134713076,9.7878980023
1520622051102222201,-0.0764919949,0.0247265593,0.0132903210,0.1528333985,0.6391346230,9.7950336622
1520622051107239201,-0.0852918958,0.0221035663,0.0122044650,0.0361843303,0.5564030188,9.8078711766
1520622051112253201,-0.0885627284,0.0235788767,0.0049169086,-0.0624262221,0.4652760267,9.7972984215
1520622051117270201,-0.0946073864,0.0212796738,-0.0078053318,-0.0864775764,0.4604813382,9.8730765570
1520622051122286201,-0.0996397689,0.0230551491,-0.0186044947,-0.0985032535,0.4041226749,9.9104371730
1520622051127301201,-0.1039211991,0.0239625936,-0.0315760941,-0.0263491907,0.4796629020,9.9247690727
1520622051132316201,-0.1061998130,0.0167004041,-0.0402849394,0.1191615025,0.5312146073,9.8651952816
1520622051137333201,-0.1064613558,0.0117584236,-0.0446509995,0.2129617841,0.5551901103,9.7643145203
1520622051142348201,-0.1042063076,0.0076835685,-0.0460390527,0.3067620657,0.6271312303,9.7377641986
1520622051147364201,-0.0969179437,0.0059279185,-0.0422782836,0.3524596388,0.6559070413,9.6199148029
1520622051152379201,-0.0921441990,0.0018351087,-0.0366368107,0.3416365294,0.6882846757,9.5700163862
1520622051157395201,-0.0833511276,-0.0043001880,-0.0293950917,0.3897392379,0.7578310739,9.5811018018
1520622051162412201,-0.0732955794,-0.0063570660,-0.0215834912,0.4414496496,0.7374416593,9.5713212115
1520622051167427201,-0.0670054247,-0.0063800997,-0.0121260529,0.4005623473,0.7350465629,9.5938022573
1520622051172443201,-0.0546837924,-0.0069871817,-0.0013315327,0.3380288263,0.6631030078,9.5294010191
1520622051177459201,-0.0428643538,-0.0043761190,0.0046185488,0.2514439509,0.6067501514,9.5419201817
1520622051182473201,-0.0305482531,-0.0046721488,0.0081105529,0.2033412424,0.5503942979,9.5343083352
1520622051187490201,-0.0199875394,0.0011655043,0.0059710451,0.1335923151,0.4748538835,9.5559794880
1520622051192506201,-0.0109357516,0.0102260073,-0.0029048559,-0.0059055396,0.3777343738,9.5551077031
1520622051197521201,-0.0018859828,0.0195859075,-0.0147545386,-0.0732493316,0.3069903338,9.5349135861
1520622051202536201,0.0071650719,0.0336247141,-0.0327912076,-0.1923035351,0.2338520403,9.5407922922
1520622051207553201,0.0131944758,0.0456335740,-0.0548960259,-0.1429982589,0.2122636726,9.5589277363
1520622051212569201,0.0199723150,0.0515141846,-0.0735318326,0.0385894657,0.2494228831,9.6129069330
1520622051217585201,0.0285048434,0.0530196174,-0.0903104313,0.1672642110,0.3981062739,9.5545644402
1520622051222601201,0.0367899738,0.0518777244,-0.0979100106,0.2754953052,0.5899603123,9.4894059733
1520622051227617201,0.0483557966,0.0583014542,-0.1011291227,0.3897392379,0.7422422484,9.3870389629
1520622051232631201,0.0657101055,0.0673331552,-0.0981164061,0.4883497904,0.8789365765,9.2871636075
1520622051237648201,0.0835769896,0.0801370265,-0.0891237131,0.6290502128,1.0048353628,9.2798606155
1520622051242663201,0.1019435193,0.0891458116,-0.0774553948,0.7264581976,1.0827719038,9.2184050132
1520622051247678201,0.1225813590,0.0998797517,-0.0568499238,0.7829788801,1.1978849825,9.1863647322
1520622051252693201,0.1427215683,0.1126459023,-0.0335224989,0.8731714585,1.2578349791,9.1075647411
1520622051257710201,0.1628593508,0.1210296300,-0.0058996859,0.9188690316,1.2722211051,9.1570781069
1520622051262725201,0.1809810659,0.1247482324,0.0225029292,0.9489332245,1.3129895380,9.2404200877
1520622051267741201,0.1983397343,0.1220575367,0.0503169448,0.9621614693,1.2794125759,9.3600249009
1520622051272758201,0.2094179980,0.1202356195,0.0792314813,0.9224767348,1.2074672413,9.4348585411
1520622051277773201,0.2212430387,0.1160960331,0.1032570069,0.8503226720,1.1571089631,9.5204464654
1520622051282788201,0.2315460867,0.1055636072,0.1204727775,0.7589275258,1.0767736729,9.5888187448
1520622051287804201,0.2325455464,0.0953385907,0.1304033008,0.6326579159,0.9712591499,9.7075272170
1520622051292820201,0.2312816545,0.0874597897,0.1344037995,0.4510701913,0.8393678460,9.8395834307
1520622051297836201,0.2274948438,0.0769786679,0.1305431267,0.2779004406,0.6703025333,9.9204596245
1520622051302851201,0.2211883292,0.0673969387,0.1169541382,0.1720744819,0.5563924352,10.0168965609
1520622051307868201,0.2080824603,0.0520059851,0.0954874585,0.0770716326,0.4700617238,10.1573627273
1520622051312883201,0.1959896589,0.0412724787,0.0759483026,0.0385894657,0.5408140059,10.1506954344
1520622051317900201,0.1816421111,0.0325639378,0.0615692808,0.0554254137,0.6355447882,10.0272519267
1520622051322915201,0.1705671679,0.0282281731,0.0469469919,0.0446023043,0.7194854607,9.9261688944
1520622051327931201,0.1612619095,0.0279557271,0.0385751148,0.1167563671,0.7926274070,9.8882066548
1520622051332946201,0.1529642182,0.0279685036,0.0326385070,0.1648590756,0.8897540349,9.8551037053
1520622051337963201,0.1449223107,0.0303080841,0.0283424925,0.2586593572,1.0084616313,9.8238592035
1520622051342977201,0.1376387767,0.0320477086,0.0305337331,0.3187877429,1.0840027950,9.8336595779
1520622051347994201,0.1311065400,0.0305765712,0.0348634869,0.4089803213,1.1571433363,9.8257375053
1520622051353008201,0.1263348849,0.0279303869,0.0429687237,0.5484781760,1.2458688631,9.7929153009
1520622051358025201,0.1220670976,0.0241093917,0.0545812314,0.6326579159,1.2710442558,9.8350707171
1520622051363041201,0.1165393387,0.0170797608,0.0672538024,0.6338604837,1.2674467408,9.8571432552
1520622051368057201,0.1110073615,0.0088933329,0.0766709303,0.6699375151,1.2782361949,9.8951323299
1520622051373073201,0.1037194602,0.0030372921,0.0861091099,0.6627221088,1.2638470717,9.9126487517
1520622051378088201,0.0969341605,-0.0013550733,0.0931225584,0.6037962908,1.2410679930,9.9794867223
1520622051383103201,0.0848710600,-0.0051623667,0.0985269790,0.5280345249,1.1883117150,10.0035184708
1520622051388119201,0.0738055924,-0.0127492523,0.1009246276,0.4570830299,1.1847198196,10.0472119035
1520622051393135201,0.0604784824,-0.0191663869,0.1014415479,0.3837263994,1.1679375670,10.0839687453
1520622051398151201,0.0476572632,-0.0255942511,0.1060157231,0.3572699097,1.1715370488,10.0179805431
1520622051403166201,0.0350980377,-0.0226911560,0.1082256573,0.3248005814,1.1619464542,10.0287652299
1520622051408182201,0.0222884425,-0.0171569575,0.1072095152,0.2225823258,1.1223827813,10.0832573698
1520622051413198201,0.0094736136,-0.0148250751,0.1050867356,0.2297977321,1.0612260578,10.1215975262
1520622051418214201,-0.0063609805,-0.0154074909,0.1026767800,0.2682798989,1.0264479884,10.1596076258
1520622051423229201,-0.0179323349,-0.0215201685,0.0985933760,0.2502413832,0.9772846359,10.2376947895
1520622051428244201,-0.0327773487,-0.0322948216,0.0939393783,0.2514439509,0.8981412743,10.2923810266
1520622051433260201,-0.0503891625,-0.0468672977,0.0925081652,0.2586593572,0.8861493081,10.3457811116
1520622051438276201,-0.0649917218,-0.0646372662,0.0886119844,0.2334054352,0.8789564324,10.3739253887
1520622051443291201,-0.0778374319,-0.0835698984,0.0838920065,0.2658747635,0.8717590611,10.3526977770
1520622051448309201,-0.0911743468,-0.0949303719,0.0805834917,0.2742927375,0.9113300394,10.3095779272
1520622051453322201,-0.0999934185,-0.1074414996,0.0723878575,0.2959389563,0.9377094429,10.2988822151
1520622051458339201,-0.1100644522,-0.1164557768,0.0639506880,0.3175851752,0.9233180719,10.2370919266
1520622051463355201,-0.1168601136,-0.1205210646,0.0577096108,0.3717007222,0.9448983848,10.1726262334
1520622051468371201,-0.1234032411,-0.1225414632,0.0495898071,0.4222085662,0.9329030469,10.0919583816
1520622051473387201,-0.1284382268,-0.1254405237,0.0433543551,0.4655010038,0.9173108496,10.1136329361
1520622051478402201,-0.1312126246,-0.1297985344,0.0381857707,0.5316422281,0.8849289069,10.0502649567
1520622051483417201,-0.1327316339,-0.1370793677,0.0365097186,0.5196165509,0.9113109328,9.9945733720
1520622051488434201,-0.1339933069,-0.1361845819,0.0286728905,0.4522727590,0.8633505608,9.9150876958
1520622051493449201,-0.1375069467,-0.1282981820,0.0211641628,0.3584724774,0.8489681812,9.8009624708
1520622051498465201,-0.1372423458,-0.1128292085,0.0118124133,0.3488519357,0.7998041731,9.7778611751
1520622051503480201,-0.1362201947,-0.0938596832,0.0011332111,0.3260031491,0.7482429145,9.7572152616
1520622051508496201,-0.1349357479,-0.0676090883,-0.0081381512,0.3404339617,0.7158649991,9.7257284863
1520622051513512201,-0.1354121964,-0.0425239924,-0.0176856847,0.3248005814,0.6738963019,9.6991922680
1520622051518528201,-0.1346358516,-0.0221092978,-0.0240245704,0.3680930191,0.6223298919,9.6999833115
1520622051523544201,-0.1346183312,-0.0054836258,-0.0301204101,0.4041700505,0.5767597460,9.6775958596
1520622051528560201,-0.1363605652,0.0096800638,-0.0346008229,0.3717007222,0.5228009558,9.6895859559
1520622051533575201,-0.1360986577,0.0195967058,-0.0380428013,0.3656878837,0.5096108794,9.7268459504
1520622051538590201,-0.1355856749,0.0280506961,-0.0393319948,0.4101828891,0.5623695926,9.7507664355
1520622051543608201,-0.1355786377,0.0324178219,-0.0379459190,0.4630958684,0.6115302290,9.7932027964
1520622051548623201,-0.1282805552,0.0361911936,-0.0314374524,0.5063883061,0.6918692656,9.7590008940
1520622051553638201,-0.1229922948,0.0390837966,-0.0227675541,0.5075908738,0.7722115803,9.7449651157
1520622051558654201,-0.1177014862,0.0425533413,-0.0119288424,0.5256293895,0.7782058775,9.7633779964
1520622051563670201,-0.1103966370,0.0480604515,0.0000038807,0.5532884469,0.8345633232,9.7851345563
1520622051568685201,-0.0990790591,0.0471564922,0.0126918660,0.6266450774,0.8681335418,9.7727663668
1520622051573701201,-0.0902755672,0.0462551905,0.0240317890,0.6434810254,0.8573399668,9.7540187168
1520622051578716201,-0.0819741437,0.0462300307,0.0345676771,0.7084196819,0.9088979473,9.6568784140
1520622051583731201,-0.0706511596,0.0473570219,0.0505177748,0.7408890101,0.9544627546,9.5670328581
1520622051588748201,-0.0558025509,0.0560708587,0.0630020419,0.6242399420,1.0072340182,9.5227931834
1520622051593764201,-0.0422158896,0.0615826157,0.0741114592,0.6062014263,1.0168285465,9.5322565562
1520622051598780201,-0.0308888909,0.0697210463,0.0833512635,0.6182271034,0.9952430823,9.5716734482
1520622051603795201,-0.0178039883,0.0769860125,0.0925811314,0.5881629106,0.9712626153,9.6405559547
1520622051608812201,-0.0074955144,0.0758019297,0.1009400262,0.5352499312,0.9640718938,9.7526438128
1520622051613827201,0.0005469616,0.0725823681,0.1073937386,0.4811343841,0.9352967384,9.8310622494
1520622051618844201,0.0070661589,0.0582910607,0.1132246824,0.4161957276,0.9317043747,9.9490743699
1520622051623858201,0.0105691117,0.0440007570,0.1182495891,0.3488519357,0.9017311091,10.0252984435
1520622051628875201,0.0138157083,0.0268001518,0.1219000022,0.2959389563,0.8885446855,10.0235020408
1520622051633889201,0.0160595755,0.0122252556,0.1242195605,0.2213797581,0.8585719818,10.0045005406
1520622051638906201,0.0155412217,-0.0014794837,0.1276331056,0.2213797581,0.8393857351,10.0033571061
1520622051643921201,0.0172791472,-0.0186777659,0.1302041354,0.3127749043,0.8261880722,9.9478596187
1520622051648937201,0.0149994159,-0.0332537058,0.1322615488,0.3344211231,0.8058009992,9.9581281020
1520622051653953201,0.0122143153,-0.0498695343,0.1343043341,0.3368262586,0.7758223013,9.8779459925
1520622051658968201,0.0106896685,-0.0635710253,0.1363670166,0.3572699097,0.7266559517,9.8208498957
1520622051663984201,0.0101704444,-0.0743458938,0.1338507828,0.3488519357,0.6571064627,9.7489467276
1520622051669000201,0.0089018989,-0.0819165564,0.1316309490,0.2598619249,0.5935589511,9.7057134065
1520622051674016201,0.0061272423,-0.0845175188,0.1232291525,0.1913155653,0.5467978132,9.7099126308
1520622051679031201,0.0043515397,-0.0894389655,0.1110200618,0.1420102891,0.5000351768,9.7464646050
1520622051684046201,0.0030778194,-0.0946508715,0.0985372686,0.1468205599,0.4568657469,9.7906213512
1520622051689063201,0.0010530213,-0.0966527439,0.0841865083,0.2045438101,0.4532638300,9.7935494484
1520622051694079201,-0.0007181022,-0.0969062108,0.0698486198,0.2875209823,0.4988247035,9.7706166295
1520622051699094201,-0.0039950899,-0.0983374614,0.0598333737,0.3500545034,0.5383914672,9.7351050597
1520622051704110201,-0.0019935280,-0.0994781737,0.0508927330,0.3957520765,0.5671672782,9.7671722342
1520622051709126201,-0.0020016549,-0.1009147002,0.0433063325,0.4522727590,0.5983405272,9.7084844960
1520622051714142201,-0.0027583192,-0.1014912088,0.0408683734,0.4715138424,0.6259192584,9.6792167214
1520622051719156201,-0.0007539033,-0.1026413906,0.0354448293,0.5172114155,0.6906692822,9.6740602091
1520622051724173201,0.0010031225,-0.1035119413,0.0343527094,0.5051857384,0.7098564656,9.6102406328
1520622051729189201,0.0032678503,-0.1003014548,0.0327496875,0.5075908738,0.7446313505,9.5741568492
1520622051734203201,0.0095566172,-0.0938805211,0.0298109224,0.4847420873,0.7026632153,9.5500151492
1520622051739220201,0.0155981782,-0.0839608862,0.0260876634,0.4618933007,0.6319157098,9.5270636572
1520622051744236201,0.0206326111,-0.0743279306,0.0204702270,0.4005623473,0.6139333801,9.5160567156
1520622051749251201,0.0259131602,-0.0652630770,0.0094369597,0.3332185554,0.5204056721,9.6144234994
1520622051754267201,0.0309395955,-0.0579451722,-0.0021502712,0.3260031491,0.4652457745,9.6517361258
1520622051759282201,0.0334454683,-0.0587986736,-0.0094663468,0.3596750451,0.4820311180,9.6757970365
1520622051764298201,0.0362039650,-0.0567294901,-0.0200072091,0.3476493680,0.5132097056,9.6259114943
1520622051769314201,0.0392137135,-0.0558308452,-0.0286636092,0.3524596388,0.5443869820,9.6235099833
1520622051774330201,0.0392135488,-0.0517325226,-0.0356666793,0.3753084254,0.5707662917,9.5500467927
1520622051779346201,0.0417342055,-0.0412198422,-0.0437076924,0.3813212639,0.5755623851,9.5209299912
1520622051784360201,0.0430027197,-0.0289659027,-0.0492981202,0.3632827482,0.5863560538,9.4815821485
1520622051789377201,0.0405059345,-0.0123368447,-0.0570125681,0.3668904514,0.5839574920,9.3897399996
1520622051794392201,0.0425363585,0.0080863550,-0.0663297923,0.3680930191,0.5827582579,9.3176765388
1520622051799408201,0.0448192300,0.0311401265,-0.0786034803,0.3933469411,0.5587734826,9.2907248084
1520622051804424201,0.0445949546,0.0547589287,-0.0846454992,0.3957520765,0.5108076783,9.2768024444
1520622051809440201,0.0418577811,0.0792545421,-0.0920289112,0.3945495088,0.4616430146,9.3175371308
1520622051814456201,0.0376044132,0.0982161724,-0.1005339450,0.4101828891,0.3992864950,9.3372022179
1520622051819471201,0.0381153810,0.1084330385,-0.1072207179,0.4546778944,0.3980838892,9.3809317704
1520622051824487201,0.0371182422,0.1163087681,-0.1104053784,0.4871472227,0.4196658880,9.4212697242
1520622051829503201,0.0338510516,0.1168938994,-0.1117475943,0.6146194003,0.5191846152,9.4489855319
1520622051834518201,0.0303305745,0.1130950526,-0.1082528637,0.6687349473,0.6271030386,9.5390007923
1520622051839535201,0.0285690952,0.1069556207,-0.1009915422,0.6819631922,0.7038469954,9.6038772604
1520622051844551201,0.0278107411,0.0984818642,-0.0923971429,0.7180402236,0.7410175388,9.6604349129
1520622051849565201,0.0242950038,0.0937891962,-0.0816043423,0.6723426505,0.8069738211,9.6375725123
1520622051854582201,0.0235446552,0.0905574475,-0.0718877438,0.6230373742,0.8141725037,9.6229375322
1520622051859597201,0.0233009973,0.0908246953,-0.0629570394,0.5268319572,0.8069851540,9.5390444441
1520622051864613201,0.0225529892,0.0925610522,-0.0586135664,0.4919574935,0.7937973255,9.5300996018
1520622051869629201,0.0233097006,0.0943081979,-0.0580605362,0.4715138424,0.7662186880,9.5268390507
1520622051874644201,0.0233111080,0.0951816230,-0.0577833211,0.4065751859,0.7446392180,9.5774643619
1520622051879661201,0.0228127797,0.0989723387,-0.0588356711,0.4065751859,0.7314486733,9.5809636565
1520622051884675201,0.0187901127,0.0998551150,-0.0626091768,0.3789161285,0.7278534062,9.5823985248
1520622051889691201,0.0160179181,0.0984167770,-0.0699198975,0.3187877429,0.6822907531,9.6085953795
1520622051894708201,0.0140056888,0.1004709781,-0.0755820659,0.2177720550,0.6043544930,9.6154653310
1520622051899723201,0.0089736121,0.1016600422,-0.0850329455,0.2454311124,0.5587850028,9.5606197838
1520622051904739201,0.0046982507,0.1060597305,-0.0963545925,0.2322028675,0.5168161182,9.5921673530
1520622051909754201,-0.0025920772,0.1122123719,-0.1098216676,0.2225823258,0.5168168675,9.5411266595
1520622051914771201,-0.0076180341,0.1195277954,-0.1219313213,0.2466336801,0.5431960836,9.5292453934
1520622051919787201,-0.0141585115,0.1233525697,-0.1364997647,0.3260031491,0.5707701318,9.5423916923
1520622051924801201,-0.0242092218,0.1283203792,-0.1432069508,0.4799318164,0.6391091475,9.6930676507
1520622051929818201,-0.0372810263,0.1259878254,-0.1445531953,0.5075908738,0.7638175973,9.8786198558
1520622051934833201,-0.0485994276,0.1146011876,-0.1378552457,0.5605038532,0.8573464293,9.9791201489
1520622051939848201,-0.0646975248,0.0985461561,-0.1295607223,0.6278476451,0.9724586650,10.0178653036
1520622051944865201,-0.0807898668,0.0836428225,-0.1161169346,0.6242399420,1.0396108097,10.0480506786
1520622051949880201,-0.0956185913,0.0725214241,-0.1002116673,0.6158219680,1.0504037291,10.0341763625
1520622051954896201,-0.1101956641,0.0619843501,-0.0848435124,0.6134168325,1.0719884440,9.9505043598
1520622051959912201,-0.1255271588,0.0520341204,-0.0710927864,0.5821500720,1.0444106495,9.9171334114
1520622051964927201,-0.1378431968,0.0429635964,-0.0589642673,0.5099960092,1.0084420564,9.9097357873
1520622051969944201,-0.1501586978,0.0376963682,-0.0524883119,0.4077777536,0.8909342560,9.9003860167
1520622051974960201,-0.1612183984,0.0356516161,-0.0522127918,0.3476493680,0.7782197392,9.8243796865
1520622051979974201,-0.1722747001,0.0403276472,-0.0589203340,0.2201771904,0.6846967141,9.7362265464
1520622051984990201,-0.1813228888,0.0470609116,-0.0718386040,0.1335923151,0.6163524535,9.7162173716
1520622051990006201,-0.1908691040,0.0555350020,-0.0820371431,0.0782742003,0.5959713746,9.7562885775
1520622051995022201,-0.2021716863,0.0648774577,-0.0903319246,0.1191615025,0.5719853817,9.7768325835
1520622052000037201,-0.2094541539,0.0712967170,-0.0945982161,0.2310002998,0.6103491649,9.7722201625
1520622052005054201,-0.2184951918,0.0756646690,-0.0948186137,0.2827107115,0.6762978608,9.7135453337
1520622052010069201,-0.2292889078,0.0811814443,-0.0890748421,0.2887235500,0.7494449583,9.7331719260
1520622052015085201,-0.2400913781,0.0805806015,-0.0839188472,0.3296108523,0.7614331781,9.8001666100
1520622052020100201,-0.2478782233,0.0782246202,-0.0758057866,0.3729032900,0.7674255085,9.8787651702
1520622052025117201,-0.2596926633,0.0729626880,-0.0712245859,0.4113854568,0.7290500178,10.0051017182
1520622052030132201,-0.2735249311,0.0615779793,-0.0656041526,0.4089803213,0.6942751329,10.1225355786
1520622052035147201,-0.2858514758,0.0478591430,-0.0586515749,0.4017649151,0.6846825714,10.1702630657
1520622052040164201,-0.2999458235,0.0277291579,-0.0517446380,0.3741058577,0.6211302832,10.1798914086
1520622052045180201,-0.3112757038,0.0093558473,-0.0475349555,0.3837263994,0.5935493042,10.1414739125
1520622052050194201,-0.3253649000,-0.0055226604,-0.0430229161,0.4101828891,0.5311919416,10.0529542664
1520622052055210201,-0.3316545491,-0.0134041589,-0.0387425370,0.2610644926,0.4700473939,9.9057109035
1520622052060227201,-0.3369375012,-0.0180705642,-0.0379566675,0.1828975913,0.3837153713,9.7798822336
1520622052065243201,-0.3384470035,-0.0168946904,-0.0420031632,0.1107435285,0.3321579527,9.6934740220
1520622052070258201,-0.3364349780,-0.0130942490,-0.0463067312,0.0842870388,0.2758004133,9.6577600296
1520622052075274201,-0.3331662389,-0.0092940438,-0.0503420870,0.0554254137,0.2266379038,9.5511716501
1520622052080289201,-0.3238699816,-0.0089917321,-0.0530625916,0.0325766272,0.1690809430,9.4538300823
1520622052085305201,-0.3105539468,-0.0063429287,-0.0609131511,0.0025124344,0.1079271229,9.3774808441
1520622052090321201,-0.2962280121,-0.0013677543,-0.0668539716,0.0145381115,0.0443717438,9.3495343136
1520622052095336201,-0.2811523561,0.0021580772,-0.0755127667,0.0253612209,0.0419726201,9.4098627924
1520622052100352201,-0.2663376746,-0.0001380529,-0.0863799239,0.0818819034,0.0899338350,9.5185074128
1520622052105368201,-0.2472529477,-0.0079870261,-0.0905336066,0.0975152837,0.1211102684,9.6380256716
1520622052110383201,-0.2286748722,-0.0210913156,-0.0909387288,0.1564411016,0.1378936450,9.6490571926
1520622052115399201,-0.2118563824,-0.0382924317,-0.0851491516,0.2273925967,0.1774597530,9.6436794303
1520622052120415201,-0.1932772641,-0.0554979576,-0.0774690202,0.1985309716,0.1990465285,9.6195342805
1520622052125431201,-0.1709272991,-0.0715357401,-0.0700575432,0.1889104299,0.2014455586,9.6126527185
1520622052130447201,-0.1488274881,-0.0864066262,-0.0631777989,0.1865052944,0.2518096437,9.6416806152
1520622052135462201,-0.1269718486,-0.0960326891,-0.0562575723,0.1660616433,0.2482138147,9.5558844566
1520622052140478201,-0.0993358029,-0.1033166702,-0.0525768465,0.1372000182,0.2530126242,9.5131613743
1520622052145495201,-0.0739588944,-0.1085611173,-0.0491469044,0.1612513725,0.2278288021,9.5001682458
1520622052150509201,-0.0478253647,-0.1129362145,-0.0438178720,0.1624539402,0.2146381638,9.4513593574
1520622052155525201,-0.0176705246,-0.1164333975,-0.0393012756,0.1444154245,0.1978516028,9.3957683942
1520622052160541201,0.0056886464,-0.1269228253,-0.0361781611,0.0927050128,0.1426951707,9.5171884724
1520622052165557201,0.0313002703,-0.1432346869,-0.0347269843,0.0061201375,0.0263852931,9.6413319216
1520622052170573201,0.0566567731,-0.1604120594,-0.0365285608,-0.0275517585,-0.0179802801,9.7428094527
1520622052175588201,0.0817550222,-0.1840058174,-0.0362142112,-0.0059055396,-0.0659475829,9.7984284451
1520622052180604201,0.1028297653,-0.2084702053,-0.0377928846,0.0614382523,-0.0407708790,9.8012348376
1520622052185620201,0.1289323746,-0.2323534972,-0.0380237168,0.1107435285,0.0455633915,9.8076436016
1520622052190635201,0.1535303077,-0.2565404192,-0.0339252375,0.2177720550,0.1199017620,9.7739893219
1520622052195651201,0.1786447755,-0.2740413257,-0.0238245509,0.3007492272,0.1738566185,9.7138597110
1520622052200666201,0.2042714695,-0.2868908092,-0.0096310399,0.4149931599,0.2565884100,9.6441005530
1520622052205683201,0.2316605954,-0.2985798930,0.0067324635,0.4799318164,0.3369257608,9.5841207925
1520622052210698201,0.2608159797,-0.3067796859,0.0260953817,0.4991728998,0.3908855812,9.5269358376
1520622052215714201,0.2852017043,-0.3103148265,0.0438794616,0.5580987177,0.4376474684,9.4519394725
1520622052220730201,0.3108452012,-0.3120975255,0.0603218170,0.6386707545,0.4400394741,9.3790999699
1520622052225746201,0.3374972375,-0.3112566415,0.0765117674,0.6579118379,0.4340422734,9.3591620885
1520622052230762201,0.3643969697,-0.3112817999,0.0897185769,0.5605038532,0.4112661918,9.3612945595
1520622052235777201,0.3870233556,-0.3086701458,0.0970013187,0.4667035716,0.3932863909,9.4389265949
1520622052240791201,0.4111505915,-0.3080837524,0.0991253266,0.3897392379,0.3573181724,9.5106015799
1520622052245808201,0.4340243323,-0.3025319311,0.0966901804,0.3921443734,0.3824999340,9.5849308268
1520622052250823201,0.4568993081,-0.2949353190,0.0923767744,0.4029674828,0.4628414994,9.6010171509
1520622052255840201,0.4772627462,-0.2867591078,0.0888841196,0.4065751859,0.5192008184,9.6020892207
1520622052260856201,0.4951095931,-0.2794500219,0.0824134579,0.4017649151,0.5887513376,9.6717968565
1520622052265872201,0.5159742253,-0.2706835604,0.0762188568,0.4582855976,0.6319159908,9.7537168434
1520622052270888201,0.5313123062,-0.2607551836,0.0705845078,0.4775266810,0.6930706538,9.7918206767
1520622052275904201,0.5438852688,-0.2496543390,0.0619881802,0.4763241133,0.7554260495,9.7952580080
1520622052280919201,0.5559588016,-0.2362226151,0.0534105707,0.4546778944,0.7878045268,9.8361121652
1520622052285934201,0.5630100076,-0.2207560823,0.0459400409,0.4751215456,0.7902012154,9.8591537197
1520622052290950201,0.5657881260,-0.2044097854,0.0357786557,0.4522727590,0.7842072929,9.8558955306
1520622052295966201,0.5617836380,-0.1869035224,0.0267209479,0.4402470819,0.7638228423,9.9001939302
1520622052300980201,0.5545146841,-0.1679430735,0.0182215148,0.4005623473,0.7086654736,9.9238768657
1520622052305998201,0.5437317729,-0.1449002491,0.0081364636,0.3500545034,0.7002754243,9.9371602470
1520622052311014201,0.5299382938,-0.1171920831,-0.0035306930,0.3139774720,0.6930833916,9.8945190884
1520622052316029201,0.5128779692,-0.0912415169,-0.0122291158,0.2766978729,0.6463198185,9.9600076108
1520622052321045201,0.4902915793,-0.0629598552,-0.0217111237,0.2249874613,0.6595143906,10.0464967181
1520622052326063201,0.4621728321,-0.0373020919,-0.0314734173,0.2442285447,0.6535171899,10.1334760805
1520622052331076201,0.4330402607,-0.0201043433,-0.0377812169,0.2875209823,0.6163404650,10.2586024950
1520622052336092201,0.3996316456,-0.0072855922,-0.0416795154,0.3019517949,0.6127419198,10.3003027247
1520622052341108201,0.3609399921,0.0014524364,-0.0458696817,0.2947363886,0.6331278690,10.3201095235
1520622052346123201,0.3209893354,0.0078567112,-0.0492636615,0.3019517949,0.6295298857,10.3560692637
1520622052351138201,0.2815445734,0.0157137349,-0.0510241839,0.3248005814,0.6259306849,10.3942011262
1520622052356155201,0.2370761675,0.0256099381,-0.0533009021,0.3284082846,0.6319261061,10.4011330280
1520622052361171201,0.1946132673,0.0314253602,-0.0548008395,0.2899261178,0.6691024563,10.3944984766
1520622052366187201,0.1498853376,0.0360801856,-0.0584698359,0.2803055761,0.6762980481,10.4178279801
1520622052371202201,0.1069210747,0.0439402015,-0.0618470996,0.2947363886,0.6918857497,10.4595095004
1520622052376218201,0.0627029562,0.0532544625,-0.0643992765,0.2863184146,0.7194666351,10.4386459498
1520622052381232201,0.0182284383,0.0599512634,-0.0688648158,0.3235980137,0.7386499784,10.3731843222
1520622052386249201,-0.0259888883,0.0698482934,-0.0714125466,0.3813212639,0.7854119592,10.3725768752
1520622052391266201,-0.0684552619,0.0739190506,-0.0742785520,0.3873341025,0.7974028952,10.3852902401
1520622052396280201,-0.1084083023,0.0756480611,-0.0728382750,0.3873341025,0.7770175080,10.3876344067
1520622052401295201,-0.1478591409,0.0770858841,-0.0714011545,0.4835395195,0.7662177514,10.3623035032
1520622052406310201,-0.1860577547,0.0747332868,-0.0689130842,0.4931600612,0.8201783211,10.3621572425
1520622052411327201,-0.2237606748,0.0685987149,-0.0686192146,0.4691087070,0.8477604241,10.3275001302
1520622052416343201,-0.2561810856,0.0656685267,-0.0672285087,0.4366393787,0.8537586550,10.3475667673
1520622052421359201,-0.2886039115,0.0627463513,-0.0688138076,0.4378419465,0.8813387911,10.2487459313
1520622052426375201,-0.3189997633,0.0708924765,-0.0684245418,0.3993597796,0.8681512435,10.2096204614
1520622052431389201,-0.3456334756,0.0752593640,-0.0707766359,0.3680930191,0.8513657128,10.1588068296
1520622052436407201,-0.3672366754,0.0845890419,-0.0758057310,0.2899261178,0.8741554687,10.0305474619
1520622052441423201,-0.3893424729,0.0939185229,-0.0808338927,0.3031543626,0.8537690513,9.9886014027
1520622052446438201,-0.4086773852,0.1076176695,-0.0850222043,0.3368262586,0.8273853395,9.9941101064
1520622052451452201,-0.4219843874,0.1166468285,-0.0854696441,0.3620801805,0.8489679002,9.9659517972
1520622052456469201,-0.4355437391,0.1268501684,-0.0891542756,0.3777135608,0.8273821550,9.9658206796
1520622052461485201,-0.4453360743,0.1344288822,-0.0915131862,0.4065751859,0.8141893625,9.9446340298
1520622052466501201,-0.4541292399,0.1382229048,-0.0949850475,0.4378419465,0.7890049785,9.9582999819
1520622052471517201,-0.4639290082,0.1411431083,-0.0987322570,0.4811343841,0.7302437260,9.9869894963
1520622052476532201,-0.4669429201,0.1431852607,-0.1000638242,0.5388576343,0.7290400899,9.9538887922
1520622052481547201,-0.4699622932,0.1390988684,-0.0979249795,0.5677192594,0.6906653485,9.8444037580
1520622052486563201,-0.4729936314,0.1268566230,-0.0969305648,0.5520858792,0.6115232981,10.0619540196
1520622052491580201,-0.4757906971,0.1020849415,-0.0960322095,0.6915837339,0.5899279059,9.9897264999
1520622052496595201,-0.4742991895,0.0875046510,-0.0918174298,0.6543041348,0.5443634733,9.9145944346
1520622052501610201,-0.4753172870,0.0737902452,-0.0848858546,0.6675323796,0.5431633026,9.7947660210
1520622052506627201,-0.4730611410,0.0697117479,-0.0849211783,0.6482912962,0.5455630820,9.7008173029
1520622052511643201,-0.4680419428,0.0635895429,-0.0830833763,0.6374681868,0.5191828357,9.6405168883
1520622052516657201,-0.4615092788,0.0606687879,-0.0796006453,0.6098091294,0.5227824111,9.6140532856
1520622052521674201,-0.4504516991,0.0577447060,-0.0742324941,0.5893654783,0.5479659522,9.5259047749
1520622052526689201,-0.4363753697,0.0556894033,-0.0664283612,0.5520858792,0.5551636982,9.5065041684
1520622052531704201,-0.4172701508,0.0591876728,-0.0642727880,0.5532884469,0.5767481322,9.4913635438
1520622052536721201,-0.3996787075,0.0586074251,-0.0626866294,0.5677192594,0.5875392721,9.4691318240
1520622052541736201,-0.3793134778,0.0635580105,-0.0586284531,0.5665166917,0.5491668722,9.5121802742
1520622052546753201,-0.3592026285,0.0655917384,-0.0535098573,0.4991728998,0.5323841512,9.5093656963
1520622052551767201,-0.3370810748,0.0699667998,-0.0518943073,0.4787292487,0.5072037945,9.5223728218
1520622052556784201,-0.3106958347,0.0717370997,-0.0562587091,0.5160088478,0.4844172230,9.4557899771
1520622052561800201,-0.2870686403,0.0758271948,-0.0568125497,0.4811343841,0.4496448669,9.4817305016
1520622052566815201,-0.2652033919,0.0799260703,-0.0608802199,0.5148062801,0.4136680317,9.4268170744
1520622052571830201,-0.2398186817,0.0857782734,-0.0662938151,0.5148062801,0.4208628743,9.4314586341
1520622052576847201,-0.2154402725,0.0887067679,-0.0682106777,0.5039831707,0.3968809087,9.4234523588
1520622052581862201,-0.1885433315,0.0957156303,-0.0701010843,0.4979703321,0.3824916919,9.3944713172
1520622052586878201,-0.1659176355,0.1030127467,-0.0714402418,0.5316422281,0.3812899290,9.3999554648
1520622052591894201,-0.1395265971,0.1056419031,-0.0701165105,0.5653141240,0.4016726938,9.3263927753
1520622052596909201,-0.1156503504,0.1071052653,-0.0690675502,0.5568961500,0.4160630345,9.3473792698
1520622052601924201,-0.0947895602,0.1076889218,-0.0663963831,0.5328447958,0.3896838183,9.3406662327
1520622052606941201,-0.0696507976,0.1114743829,-0.0618148750,0.5148062801,0.3525118701,9.3315809064
1520622052611956201,-0.0477795784,0.1152607494,-0.0580389373,0.4979703321,0.2913570198,9.3596958684
1520622052616972201,-0.0284234135,0.1181748914,-0.0553471852,0.4510701913,0.2865641108,9.3601570430
1520622052621988201,-0.0110786938,0.1207990466,-0.0534655601,0.4294239725,0.2278079159,9.3441550162
1520622052627004201,0.0045108897,0.1248728793,-0.0491346394,0.4642984361,0.1810387233,9.3031861354
1520622052632019201,0.0178375998,0.1295351509,-0.0472299851,0.4161957276,0.1270811506,9.3130041096
1520622052637036201,0.0304138007,0.1365274748,-0.0450356000,0.3837263994,0.0851137646,9.2936046258
1520622052642051201,0.0397245242,0.1443919441,-0.0425579324,0.2995466595,0.0815228996,9.3223189426
1520622052647067201,0.0455120539,0.1505154689,-0.0433336199,0.2634696281,0.0035815818,9.3483132684
1520622052652081201,0.0500471352,0.1589666640,-0.0430070056,0.2550516541,-0.0180022902,9.4134963133
1520622052657098201,0.0523116004,0.1624707203,-0.0454194421,0.2574567895,-0.0096084945,9.4738962034
1520622052662114201,0.0545724979,0.1618888373,-0.0454280888,0.2418234092,-0.0048107152,9.5193673060
1520622052667130201,0.0520595959,0.1613021700,-0.0443456842,0.2959389563,0.0515446700,9.5211099075
1520622052672145201,0.0540678695,0.1577976021,-0.0411295442,0.3692955868,0.1007037141,9.5261586759
1520622052677160201,0.0550708105,0.1522442076,-0.0346805483,0.3921443734,0.1822434833,9.5479374999
1520622052682176201,0.0548216522,0.1481392307,-0.0252420984,0.4378419465,0.2673788943,9.5904090109
1520622052687192201,0.0530588046,0.1393700537,-0.0152953257,0.4029674828,0.3417283167,9.5895138146
1520622052692208201,0.0565760002,0.1311791575,-0.0029189950,0.4161957276,0.3908920438,9.5858506842
1520622052697224201,0.0583349821,0.1229846584,0.0105427863,0.4486650559,0.4736302042,9.5831296754
1520622052702239201,0.0621084437,0.1168262680,0.0256396709,0.4246137016,0.4808269199,9.6321668065
1520622052707255201,0.0646231687,0.1095040325,0.0399183590,0.4005623473,0.5132055846,9.6579365025
1520622052712271201,0.0671359178,0.1021883529,0.0517621340,0.4246137016,0.5347882390,9.6646542170
1520622052717288201,0.0731752480,0.0989439655,0.0671475948,0.4534753267,0.5599679400,9.6597001637
1520622052722302201,0.0774493745,0.0924994865,0.0803475015,0.4510701913,0.5371844593,9.7062315494
1520622052727318201,0.0834790291,0.0834332360,0.0935241334,0.4534753267,0.5072057614,9.7143723805
1520622052732333201,0.0907583132,0.0688289864,0.1074678308,0.4378419465,0.5491768938,9.7667800973
1520622052737350201,0.0950256182,0.0565531747,0.1219760053,0.4522727590,0.6151284932,9.7293867164
1520622052742366201,0.1000389906,0.0393277636,0.1350922577,0.4137905922,0.6451100009,9.7866770985
1520622052747380201,0.1058109247,0.0261849449,0.1471560495,0.3873341025,0.7038699421,9.8275523505
1520622052752396201,0.1128382985,0.0127534193,0.1584036470,0.3536622065,0.7122665476,9.8429797781
1520622052757413201,0.1198711725,0.0036941185,0.1691434989,0.3103697689,0.6906853917,9.8190171852
1520622052762428201,0.1261542430,-0.0018666781,0.1790997903,0.2815081438,0.7098738863,9.8378737004
1520622052767444201,0.1311769970,-0.0082933794,0.1858051954,0.2754953052,0.7254631801,9.8716191989
1520622052772460201,0.1382120822,-0.0115060504,0.1895553158,0.2875209823,0.7098734180,9.8413016070
1520622052777475201,0.1412245789,-0.0173485850,0.1954572631,0.3163826074,0.6918840638,9.8561460971
1520622052782490201,0.1454951535,-0.0220250892,0.2013657691,0.3296108523,0.6810907698,9.8560278655
1520622052787507201,0.1497596201,-0.0284375172,0.2026616564,0.2899261178,0.6559119117,9.8936272951
1520622052792523201,0.1532715507,-0.0351474525,0.2061210880,0.3296108523,0.6271294507,9.8711883572
1520622052797538201,0.1575427016,-0.0377769807,0.2093396967,0.3500545034,0.5839588033,9.8198971335
1520622052802553201,0.1587884577,-0.0468145078,0.2111622687,0.3296108523,0.5635750083,9.8340617257
1520622052807570201,0.1600353155,-0.0543921985,0.2119137725,0.3344211231,0.5599772124,9.8212348300
1520622052812586201,0.1640490126,-0.0599283861,0.2124051581,0.3440416648,0.5779635694,9.8327450890
1520622052817602201,0.1667997076,-0.0689558529,0.2107078332,0.3019517949,0.5587806008,9.8343356193
1520622052822618201,0.1698070215,-0.0753665879,0.2111944164,0.2346080030,0.5455953011,9.8524361245
1520622052827632201,0.1730673082,-0.0797338906,0.2103433650,0.2273925967,0.5731760928,9.8431823084
1520622052832648201,0.1765789408,-0.0829304577,0.2076069180,0.1792898882,0.5575910137,9.8471521440
1520622052837664201,0.1793383941,-0.0843768277,0.2040735720,0.1768847527,0.5527946393,9.8204509205
1520622052842680201,0.1820977219,-0.0834811950,0.1964998222,0.1756821850,0.5240153628,9.8507064325
1520622052847696201,0.1848556854,-0.0837518289,0.1891877260,0.1359974505,0.5264167344,9.8290096255
1520622052852711201,0.1868618185,-0.0831515183,0.1829658827,0.1684667787,0.5659858396,9.8344657206
1520622052857728201,0.1863562414,-0.0808002429,0.1754093158,0.2598619249,0.5575847384,9.7952335712
1520622052862743201,0.1866006874,-0.0819482002,0.1689068552,0.2297977321,0.5587862204,9.8001736041
1520622052867759201,0.1868466231,-0.0842718937,0.1661831449,0.1925181330,0.5743779493,9.7935483957
1520622052872774201,0.1883464224,-0.0851228752,0.1577867525,0.1684667787,0.5851720863,9.7914476849
1520622052877791201,0.1865837787,-0.0833555895,0.1504986189,0.2141643518,0.5707788422,9.8154219478
1520622052882805201,0.1838155908,-0.0807094452,0.1413252001,0.1985309716,0.5479963917,9.8551092254
1520622052887823201,0.1833086062,-0.0792315949,0.1334914180,0.2057463779,0.5815717616,9.8294390866
1520622052892837201,0.1802857754,-0.0792087382,0.1245690041,0.2081515133,0.5755758722,9.8607994100
1520622052897854201,0.1762613090,-0.0780272930,0.1180922626,0.2394182738,0.5683785945,9.8500427989
1520622052902868201,0.1750011258,-0.0783082433,0.1140341846,0.2550516541,0.5252083216,9.8290141382
1520622052907885201,0.1707286144,-0.0753815032,0.1086534319,0.2839132792,0.5144138100,9.8159601574
1520622052912900201,0.1664546486,-0.0744988253,0.1048803929,0.3055594980,0.5120138433,9.7948332139
1520622052917916201,0.1636857472,-0.0759480898,0.1016278607,0.3524596388,0.4952222246,9.7839337919
1520622052922932201,0.1604160476,-0.0776962200,0.1010794978,0.3765109931,0.5036143344,9.7639350582
1520622052927947201,0.1558882699,-0.0806103806,0.1005245761,0.3909418056,0.5204011764,9.7695889465
1520622052932963201,0.1543737025,-0.0852716669,0.0999507153,0.4222085662,0.5287927242,9.7762492934
1520622052937979201,0.1493464047,-0.0867327440,0.1007605720,0.3981572119,0.4820281209,9.7823397185
1520622052942994201,0.1440649502,-0.0896479284,0.1004775965,0.3909418056,0.5132063338,9.8091088570
1520622052948011201,0.1415444425,-0.0937217404,0.0980162275,0.3957520765,0.5072102571,9.7974464439
1520622052953026201,0.1390307956,-0.0937205397,0.0972092570,0.3704981545,0.5419872962,9.7697668844
1520622052958042201,0.1350126528,-0.0922673776,0.0980394777,0.3608776128,0.5815596795,9.7930648157
1520622052963057201,0.1314955708,-0.0908089197,0.0969749437,0.3704981545,0.6175331429,9.7929360951
1520622052968073201,0.1287337457,-0.0896473783,0.0980711535,0.3897392379,0.6307221890,9.8368974217
1520622052973089201,0.1242152516,-0.0855675818,0.0972990401,0.3741058577,0.6295242661,9.8277536051
1520622052978105201,0.1247232203,-0.0803166360,0.0951737550,0.3500545034,0.6547080882,9.8058824150
1520622052983120201,0.1212128697,-0.0739046410,0.0941470134,0.3416365294,0.6798906927,9.7757240515
1520622052988137201,0.1171998743,-0.0686634801,0.0950061342,0.3524596388,0.6918812540,9.7198241028
1520622052993152201,0.1139462366,-0.0572934792,0.0923934430,0.3644853160,0.7146639855,9.7266576985
1520622052998168201,0.1076727437,-0.0497155722,0.0908396359,0.3199903106,0.7278579956,9.7572936657
1520622053003182201,0.1016498478,-0.0418425402,0.0879348557,0.3223954460,0.7566371784,9.7514314716
1520622053008199201,0.0978973486,-0.0290216410,0.0874985805,0.3368262586,0.7806188630,9.7675376395
1520622053013215201,0.0938937740,-0.0147380901,0.0849095203,0.3777135608,0.7926070827,9.8159380203
1520622053018231201,0.0856096317,-0.0054039225,0.0801262348,0.3704981545,0.7554342916,9.7951259090
1520622053023246201,0.0795914874,0.0059657239,0.0772481316,0.3572699097,0.7446430580,9.8022380524
1520622053028262201,0.0738278487,0.0179102250,0.0773500127,0.4186008630,0.7050666474,9.8040039706
1520622053033277201,0.0678070189,0.0266544969,0.0755340854,0.4234111339,0.6822826047,9.7993307920
1520622053038293201,0.0617796341,0.0307373448,0.0734120428,0.4101828891,0.6978724605,9.7692286034
1520622053043310201,0.0532440087,0.0368523440,0.0737451421,0.3861315348,0.6690949635,9.7253292984
1520622053048324201,0.0467171900,0.0418025926,0.0740656152,0.3849289671,0.6523070912,9.7265195182
1520622053053341201,0.0384294801,0.0470508210,0.0716861196,0.3416365294,0.6822889736,9.7199388030
1520622053058357201,0.0308931615,0.0514295617,0.0676752791,0.3103697689,0.6547111790,9.7377021886
1520622053063372201,0.0253645089,0.0549400355,0.0617602143,0.3464468003,0.6607040713,9.7280480386
1520622053068388201,0.0175765857,0.0599050889,0.0564015573,0.3163826074,0.6894857830,9.7492311920
1520622053073404201,0.0090366165,0.0672052938,0.0494388097,0.3260031491,0.6858876124,9.7596003552
1520622053078419201,0.0062780140,0.0747955056,0.0438202801,0.3440416648,0.7086698756,9.7768347212
1520622053083434201,-0.0002506002,0.0815079016,0.0390137197,0.3548647743,0.7254569986,9.7069843677
1520622053088451201,-0.0052762161,0.0850171155,0.0336388133,0.3873341025,0.7170604868,9.7543244186
1520622053093466201,-0.0108047864,0.0864784280,0.0312252835,0.4029674828,0.7194575501,9.7820613691
1520622053098482201,-0.0160824146,0.0858921345,0.0317717304,0.3656878837,0.7602312279,9.7672765969
1520622053103497201,-0.0191064451,0.0806504021,0.0301140401,0.3560673420,0.7890113474,9.7731528930
1520622053108514201,-0.0203659306,0.0786109466,0.0298302662,0.3741058577,0.7902090829,9.7718140039
1520622053113530201,-0.0201182856,0.0751107886,0.0311558520,0.3837263994,0.7986023166,9.7751986099
1520622053118545201,-0.0208772433,0.0707368116,0.0322060895,0.3644853160,0.8141926406,9.7683978257
1520622053123561201,-0.0211262134,0.0713143831,0.0341048236,0.3825238317,0.8093946740,9.7786862228
1520622053128576201,-0.0181105883,0.0695592447,0.0370618893,0.3536622065,0.8273840282,9.7580310129
1520622053133591201,-0.0160991862,0.0701420730,0.0373331476,0.3524596388,0.8273841219,9.7661777256
1520622053138608201,-0.0150971115,0.0689820277,0.0354285671,0.3644853160,0.8237857640,9.7730370468
1520622053143623201,-0.0098196989,0.0710325281,0.0321877767,0.3452442326,0.8022027350,9.7395432011
1520622053148641201,-0.0068105306,0.0684207185,0.0286450716,0.3452442326,0.7794190669,9.7767540251
1520622053153654201,-0.0058068721,0.0684262113,0.0267493835,0.2610644926,0.7602393763,9.7183227468
1520622053158671201,-0.0007925862,0.0643691931,0.0191336407,0.2827107115,0.7698308138,9.7053191176
1520622053163687201,0.0012051455,0.0594361114,0.0117873753,0.3007492272,0.7566388643,9.7330478594
1520622053168703201,0.0039637637,0.0576998137,0.0077107144,0.2971415240,0.7482451623,9.7574961830
1520622053173719201,0.0107400386,0.0533411737,0.0041476699,0.3031543626,0.7506429748,9.7458138795
1520622053178734201,0.0145036326,0.0516059983,-0.0002014038,0.3524596388,0.7698253816,9.7650717099
1520622053183749201,0.0155028023,0.0478213070,-0.0013143544,0.3332185554,0.7842165652,9.7524613753
1520622053188765201,0.0217799491,0.0437436565,-0.0010865997,0.3717007222,0.8057980957,9.7462550456
1520622053193781201,0.0283159572,0.0434460907,0.0021455931,0.3753084254,0.8201874998,9.7008822841
1520622053198797201,0.0340896242,0.0379076786,0.0037158952,0.3921443734,0.7782162737,9.7019214842
1520622053203812201,0.0406170936,0.0300282876,0.0090546551,0.3777135608,0.7614294317,9.7067268914
1520622053208828201,0.0468996898,0.0276887463,0.0130833907,0.3813212639,0.7458403253,9.7264634249
1520622053213844201,0.0519235454,0.0227218813,0.0187177276,0.3921443734,0.7242549547,9.7461355747
1520622053218859201,0.0569463033,0.0177586586,0.0229993350,0.3849289671,0.7398443422,9.7217855806
1520622053223876201,0.0614657147,0.0119196285,0.0278162984,0.4137905922,0.7590283411,9.7226480938
1520622053228891201,0.0677429399,0.0043293383,0.0339693858,0.3741058577,0.7566331510,9.6858480928
1520622053233906201,0.0720095157,-0.0015046913,0.0368929946,0.3320159877,0.7206622164,9.7118600169
1520622053238922201,0.0762757897,-0.0052888311,0.0360445225,0.3380288263,0.7470428374,9.7768558276
1520622053243938201,0.0805442160,-0.0087874138,0.0373626407,0.2971415240,0.7506434431,9.7667909959
1520622053248954201,0.0838068824,-0.0099429309,0.0341011302,0.2803055761,0.7326576480,9.7855667101
1520622053253970201,0.0858184648,-0.0076045111,0.0316802680,0.3067620657,0.7266598854,9.7980986290
1520622053258985201,0.0868190458,-0.0090522988,0.0284207349,0.3175851752,0.7218624808,9.8386729993
1520622053264002201,0.0873165430,-0.0116694636,0.0265059725,0.3404339617,0.6690985226,9.8315291904
1520622053269016201,0.0878160632,-0.0131225471,0.0251411941,0.3512570711,0.6702968201,9.8407198272
1520622053274033201,0.0885723746,-0.0131302645,0.0281157988,0.3440416648,0.7014750330,9.8430839426
1520622053279049201,0.0898228862,-0.0172076988,0.0275412502,0.3284082846,0.6762943017,9.8665035435
1520622053284064201,0.0888169382,-0.0195471815,0.0305013373,0.3187877429,0.7314555105,9.8456248032
1520622053289080201,0.0898229254,-0.0189640187,0.0305039165,0.3187877429,0.7578365998,9.8107347591
1520622053294096201,0.0875640939,-0.0175108959,0.0316014160,0.2911286855,0.7482456306,9.8551748004
1520622053299112201,0.0870621118,-0.0172204367,0.0318751185,0.2935338209,0.7674316901,9.8830241358
1520622053304127201,0.0848023159,-0.0151787174,0.0308126970,0.3019517949,0.7530413494,9.8771455127
1520622053309143201,0.0825455544,-0.0113908762,0.0305752517,0.3079646335,0.7542400215,9.8759236741
1520622053314159201,0.0828016048,-0.0078941634,0.0306014620,0.3055594980,0.7686298939,9.8805816279
1520622053319174201,0.0797863716,-0.0073111189,0.0300704171,0.3103697689,0.7902140469,9.8654058882
1520622053324191201,0.0782817895,-0.0052734748,0.0306298708,0.3127749043,0.7938112808,9.8432982350
1520622053329205201,0.0755187804,-0.0035226085,0.0292956138,0.3151800397,0.8093999190,9.8362867597
1520622053334220201,0.0737627701,-0.0006065387,0.0282389281,0.2935338209,0.8249904304,9.8248608098
1520622053339237201,0.0722529110,-0.0014783693,0.0271528756,0.2839132792,0.8453765669,9.8260967154
1520622053344254201,0.0725034219,-0.0005975614,0.0247241651,0.2899261178,0.8465752390,9.8399827482
1520622053349268201,0.0714959841,-0.0017613080,0.0239055020,0.2935338209,0.8753543282,9.8701353117
1520622053354285201,0.0694839234,-0.0023419510,0.0228226060,0.3151800397,0.9473010677,9.8617194527
1520622053359300201,0.0699830044,-0.0037935777,0.0209167359,0.3272057169,0.9544949736,9.8546225224
1520622053364316201,0.0682198236,-0.0058295880,0.0192811659,0.3115723366,0.9712841571,9.9337841062
1520622053369332201,0.0669574371,-0.0090302111,0.0173652243,0.3344211231,1.0228454158,9.8870256704
1520622053374347201,0.0664527303,-0.0096088064,0.0157384362,0.3729032900,1.0324355421,9.8878038978
1520622053379363201,0.0654457786,-0.0096033728,0.0135759360,0.3933469411,1.0875944093,9.9166047211
1520622053384378201,0.0626818444,-0.0090202299,0.0130444243,0.3861315348,1.0768027075,9.8853075888
1520622053389395201,0.0576552091,-0.0090200137,0.0122421211,0.3560673420,1.0468265384,9.8298465388
1520622053394410201,0.0543871365,-0.0098954472,0.0122415192,0.3260031491,1.0372357565,9.8766342781
1520622053399425201,0.0503636305,-0.0107660771,0.0103484963,0.3476493680,1.0324375089,9.8868875601
1520622053404443201,0.0440847666,-0.0084389191,0.0109190408,0.4137905922,1.0192418130,9.8746352051
1520622053409457201,0.0393117158,-0.0075680931,0.0114756696,0.3957520765,1.0204423583,9.8225131337
1520622053414473201,0.0325285841,-0.0058209873,0.0109605179,0.4041700505,0.9940606134,9.8619698182
1520622053419490201,0.0275054224,-0.0040761061,0.0115242826,0.4029674828,0.9664804773,9.8747920016
1520622053424505201,0.0212258096,-0.0026245586,0.0126292497,0.3981572119,0.9748748349,9.8655334848
1520622053429521201,0.0144472531,0.0023270485,0.0124090978,0.3993597796,0.9436970902,9.8725250463
1520622053434535201,0.0084215345,0.0055262732,0.0137974826,0.3873341025,0.9305074822,9.8738171035
1520622053439552201,0.0001401521,0.0125096969,0.0163011516,0.3284082846,0.9053301226,9.8104972899
1520622053444567201,-0.0031182450,0.0174561265,0.0185093786,0.3416365294,0.8621600371,9.8324913657
1520622053449582201,-0.0101465205,0.0221096948,0.0207223834,0.3139774720,0.8333828211,9.8560315252
1520622053454599201,-0.0174228370,0.0299720365,0.0216075793,0.3223954460,0.7914122507,9.8536662288
1520622053459615201,-0.0246999022,0.0369587678,0.0230271978,0.2803055761,0.7746275629,9.8076065183
1520622053464630201,-0.0324829524,0.0416149544,0.0241594192,0.2754953052,0.7662339545,9.7762836372
1520622053469647201,-0.0382575446,0.0459856431,0.0233918624,0.3223954460,0.7566371784,9.7072700014
1520622053474662201,-0.0462923797,0.0494725510,0.0258683877,0.3596750451,0.7758205217,9.7045641473
1520622053479678201,-0.0500538998,0.0550059233,0.0264587189,0.4125880245,0.7506344518,9.7447487193
1520622053484693201,-0.0530688703,0.0552953979,0.0267370886,0.4077777536,0.7566305285,9.7250332456
1520622053489709201,-0.0563337792,0.0552875621,0.0291780691,0.4270188370,0.7602264513,9.7225181688
1520622053494724201,-0.0598545150,0.0532457636,0.0294395875,0.4294239725,0.7782133703,9.7422336658
1520622053499739201,-0.0613639859,0.0497383605,0.0332033533,0.4847420873,0.8357678023,9.7567469763
1520622053504755201,-0.0621211912,0.0438950776,0.0388417556,0.4991728998,0.8417623805,9.7624113887
1520622053509771201,-0.0646407502,0.0333787549,0.0482354981,0.5160088478,0.8453584905,9.8331347911
1520622053514788201,-0.0669123505,0.0217028201,0.0554555144,0.5496807438,0.8933214849,9.8141659727
1520622053519803201,-0.0661618530,0.0149823321,0.0624371766,0.5520858792,0.9065118423,9.8071568362
1520622053524818201,-0.0666702216,0.0079765232,0.0669840362,0.5316422281,0.9089117153,9.8398935142
1520622053529835201,-0.0691898628,-0.0004906381,0.0728762437,0.4498676236,0.9376974544,9.8336885301
1520622053534850201,-0.0714619806,-0.0086524762,0.0736298355,0.4222085662,0.9844660851,9.8490200136
1520622053539866201,-0.0759952586,-0.0159388616,0.0735826594,0.3861315348,0.9628843673,9.8970401155
1520622053544881201,-0.0800191213,-0.0188571959,0.0746500797,0.3789161285,0.9796728951,9.9063911267
1520622053549897201,-0.0858038321,-0.0217703919,0.0735563999,0.3741058577,0.9904655336,9.9017788471
1520622053554914201,-0.0925939579,-0.0246832534,0.0721940411,0.3488519357,0.9532941473,9.9404116533
1520622053559930201,-0.0968714011,-0.0270087190,0.0694787317,0.3235980137,0.9245167440,9.9151183566
1520622053564945201,-0.1044188497,-0.0304959037,0.0648667762,0.3308134200,0.9221179012,9.9185368968
1520622053569962201,-0.1087019697,-0.0374857071,0.0629275352,0.2923312532,0.9197226175,9.8910223424
1520622053574977201,-0.1134924310,-0.0450453646,0.0561149553,0.3127749043,0.8969373572,9.8850348541
1520622053579992201,-0.1220432284,-0.0476609748,0.0523231736,0.3488519357,0.8789474411,9.8963226821
1520622053585007201,-0.1280860086,-0.0537714864,0.0482295017,0.3199903106,0.8609625826,9.8582703930
1520622053590024201,-0.1326204235,-0.0592979097,0.0438669298,0.3115723366,0.8693572211,9.8467227035
1520622053595039201,-0.1376600745,-0.0662792673,0.0386825381,0.3211928783,0.8645599102,9.8861466348
1520622053600053201,-0.1436991578,-0.0691823637,0.0338016825,0.3019517949,0.8249897748,9.8759132084
1520622053605072201,-0.1487321636,-0.0706245016,0.0275773460,0.2634696281,0.8237936315,9.8902346670
1520622053610086201,-0.1517565352,-0.0720600243,0.0191849084,0.2815081438,0.8201948053,9.8493875607
1520622053615105201,-0.1570436116,-0.0755419523,0.0129454770,0.2995466595,0.8022062940,9.8864181315
1520622053620119201,-0.1615699779,-0.0761192092,0.0102439729,0.2863184146,0.7830210775,9.8877277405
1520622053625135201,-0.1671082237,-0.0804797598,0.0056216143,0.3163826074,0.7482436637,9.9316304952
1520622053630151201,-0.1721458047,-0.0851263990,-0.0008977221,0.3368262586,0.7602334758,9.8942312093
1520622053635164201,-0.1754207773,-0.0883205254,-0.0055153889,0.3272057169,0.7674290676,9.8408592118
1520622053640181201,-0.1754250819,-0.0888916396,-0.0098485694,0.3356236908,0.7842163779,9.8268151782
1520622053645197201,-0.1749268751,-0.0888768741,-0.0152604207,0.3608776128,0.8081972195,9.7881952348
1520622053650211201,-0.1731699277,-0.0862347849,-0.0222778733,0.3211928783,0.7962089060,9.8060253543
1520622053655229201,-0.1691493620,-0.0847690027,-0.0249796844,0.3103697689,0.7938114681,9.7712687199
1520622053660245201,-0.1661302516,-0.0803890406,-0.0279279437,0.3031543626,0.8010068726,9.7387919035
1520622053665260201,-0.1623585188,-0.0762972539,-0.0319620098,0.2694824666,0.7854206696,9.7867827486
1520622053670275201,-0.1550674969,-0.0692807739,-0.0394974758,0.2562542218,0.7410535042,9.7451175874
1520622053675292201,-0.1505416010,-0.0640187832,-0.0451473251,0.2803055761,0.7626361586,9.7460245821
1520622053680307201,-0.1432506222,-0.0567094619,-0.0532216598,0.3187877429,0.7806202679,9.7479567682
1520622053685323201,-0.1362079588,-0.0502882328,-0.0561618250,0.3464468003,0.7758215520,9.7593136688
1520622053690339201,-0.1304268508,-0.0482411776,-0.0580508194,0.3692955868,0.7866120362,9.7497835970
1520622053695354201,-0.1211265085,-0.0473670233,-0.0567086894,0.3440416648,0.7482415096,9.6942839122
1520622053700369201,-0.1135849052,-0.0459093323,-0.0558999380,0.3308134200,0.7110691867,9.6979353492
1520622053705385201,-0.1088068833,-0.0432842725,-0.0561593438,0.3452442326,0.7026740798,9.7198838091
1520622053710401201,-0.1017641376,-0.0389122047,-0.0555979740,0.3260031491,0.6690996465,9.6573480579
1520622053715416201,-0.0901954568,-0.0310344660,-0.0577237872,0.3103697689,0.6367240727,9.6354510607
1520622053720433201,-0.0839079248,-0.0266583230,-0.0587842925,0.2803055761,0.5971547802,9.6102151083
1520622053725448201,-0.0771147608,-0.0205358612,-0.0590207552,0.2646721958,0.5803680318,9.5987622053
1520622053730464201,-0.0693172757,-0.0129466133,-0.0627650659,0.2875209823,0.5312014949,9.6020741840
1520622053735480201,-0.0597603930,-0.0059430875,-0.0651643604,0.2490388155,0.5036242623,9.5966649208
1520622053740496201,-0.0524668267,0.0001868555,-0.0681072155,0.2225823258,0.4928340590,9.5574200616
1520622053745511201,-0.0454296557,0.0051628169,-0.0753872304,0.2406208415,0.4496635989,9.5921509006
1520622053750526201,-0.0366268891,0.0121667758,-0.0780556707,0.2490388155,0.4316758369,9.5978972251
1520622053755542201,-0.0298362654,0.0206392530,-0.0853085419,0.2310002998,0.4376729439,9.6608227278
1520622053760558201,-0.0258088351,0.0276435266,-0.0887797521,0.2310002998,0.4556600503,9.6491837481
1520622053765573201,-0.0182634878,0.0334792698,-0.0906431133,0.2430259770,0.4784427817,9.6083694417
1520622053770590201,-0.0122305948,0.0366956037,-0.0938764115,0.2418234092,0.5228110711,9.6397157680
1520622053775606201,-0.0069476426,0.0413620090,-0.0946622810,0.2742927375,0.5048214359,9.6277958320
1520622053780622201,-0.0021682565,0.0451533354,-0.0951833405,0.2851158469,0.5455913673,9.5985971301
1520622053785636201,0.0016043937,0.0474858884,-0.0951725566,0.2839132792,0.5695742695,9.6067204561
1520622053790653201,0.0056279898,0.0492343140,-0.0946255939,0.3103697689,0.5443902601,9.6401896756
1520622053795669201,0.0111589006,0.0527411071,-0.0975851896,0.2839132792,0.5228077930,9.6323332273
1520622053800684201,0.0154316001,0.0544969155,-0.0997441526,0.3007492272,0.5192090604,9.6217135689
1520622053805700201,0.0181945269,0.0547952105,-0.1019114306,0.3464468003,0.5192055014,9.6259173526
1520622053810716201,0.0186984418,0.0547910368,-0.1002890887,0.3729032900,0.5036146153,9.6117293153
1520622053815732201,0.0219657617,0.0533273813,-0.0973302667,0.4041700505,0.5072096015,9.6486100824
1520622053820747201,0.0237250260,0.0521567050,-0.0951780589,0.3813212639,0.5192027852,9.6069836027
1520622053825763201,0.0239758818,0.0506947818,-0.0932958198,0.3765109931,0.5539782321,9.6453472626
1520622053830779201,0.0242321831,0.0495074892,-0.0851888020,0.3909418056,0.5743624954,9.6602947946
1520622053835794201,0.0262428716,0.0459949086,-0.0789966572,0.4173982953,0.5947458221,9.6774495639
1520622053840810201,0.0259897576,0.0404395649,-0.0720042358,0.4703112747,0.5959408415,9.6815819479
1520622053845826201,0.0259887304,0.0340036102,-0.0625840373,0.5232242541,0.6223178098,9.6891762076
1520622053850840201,0.0242272863,0.0246443799,-0.0499362519,0.5124011447,0.6343100569,9.7276206102
1520622053855858201,0.0244718381,0.0138370273,-0.0402793205,0.4991728998,0.6403067893,9.7405271026
1520622053860874201,0.0209458097,0.0030318401,-0.0319681177,0.4919574935,0.6427056321,9.7347842745
1520622053865889201,0.0204388446,-0.0045640222,-0.0247202453,0.5051857384,0.6235183551,9.7567549634
1520622053870905201,0.0189252337,-0.0127408620,-0.0182865899,0.4594881653,0.6115305099,9.7421035776
1520622053875921201,0.0186702301,-0.0188753326,-0.0126513441,0.4618933007,0.6283182885,9.7141723418
1520622053880936201,0.0166545939,-0.0264688719,-0.0064828550,0.4895523581,0.6355109769,9.7429497083
1520622053885952201,0.0156402875,-0.0346345883,-0.0041083214,0.4943626290,0.6546968490,9.7266141633
1520622053890967201,0.0161386550,-0.0401816239,-0.0000933050,0.5027806029,0.6451030700,9.7218930068
1520622053895983201,0.0151348122,-0.0434061868,0.0069183012,0.4979703321,0.6534974276,9.6893916110
1520622053900998201,0.0141261787,-0.0483710440,0.0109405641,0.5256293895,0.6918677670,9.6809499681
1520622053906014201,0.0141227797,-0.0550918273,0.0179236264,0.5280345249,0.7242443711,9.6948407133
1520622053911031201,0.0161362831,-0.0568575576,0.0246702015,0.4739189778,0.6966683561,9.7151507829
1520622053916046201,0.0168891171,-0.0600734185,0.0287025359,0.4871472227,0.7014638875,9.7359359411
1520622053921062201,0.0186445551,-0.0635729858,0.0300253213,0.5051857384,0.6942676401,9.7171730780
1520622053926077201,0.0171367150,-0.0647442137,0.0319130505,0.4618933007,0.6906735906,9.7234086878
1520622053931094201,0.0198984970,-0.0656129137,0.0302779719,0.4558804621,0.6750852334,9.7083745431
1520622053936109201,0.0224103445,-0.0653154456,0.0283817065,0.4847420873,0.6522993175,9.7453044457
1520622053941125201,0.0211518353,-0.0635530621,0.0229864607,0.4715138424,0.6534994882,9.6931355541
1520622053946141201,0.0239148130,-0.0606206514,0.0165104561,0.5172114155,0.6187208568,9.6985353925
1520622053951156201,0.0254240173,-0.0582831570,0.0143610733,0.4883497904,0.6247188068,9.7557555209
1520622053956172201,0.0254251660,-0.0556526835,0.0114050762,0.5196165509,0.6199198099,9.7217536922
1520622053961188201,0.0254251700,-0.0541892050,0.0089812786,0.5099960092,0.6415050868,9.6823133901
1520622053966204201,0.0256744459,-0.0553531878,0.0084308277,0.5232242541,0.6211186693,9.6868530890
1520622053971219201,0.0249176052,-0.0562218093,0.0062611915,0.5328447958,0.6151222179,9.7123324623
1520622053976235201,0.0241625247,-0.0556327798,0.0038321248,0.5196165509,0.5887421589,9.6962169280
1520622053981250201,0.0221562309,-0.0506712893,0.0006271002,0.4907549258,0.5923418280,9.6860350457
1520622053986266201,0.0191410880,-0.0492104491,-0.0012500049,0.5003754675,0.5599642873,9.6906215533
1520622053991282201,0.0163785651,-0.0462904025,-0.0039280991,0.4991728998,0.5491721171,9.7104002296
1520622053996298201,0.0128614400,-0.0445391031,-0.0055315018,0.5111985769,0.5863445337,9.7485976800
1520622054001313201,0.0085899833,-0.0413231637,-0.0100983938,0.5051857384,0.5671587552,9.6882434291
1520622054006329201,0.0065807413,-0.0386934779,-0.0130506571,0.5232242541,0.5455728227,9.6950617651
1520622054011345201,0.0028157517,-0.0334412921,-0.0162501915,0.5400602021,0.5479697923,9.7169762907
1520622054016360201,-0.0012044062,-0.0302252542,-0.0208175502,0.5508833115,0.5899388642,9.6645335404
1520622054021376201,-0.0027039702,-0.0235210871,-0.0218458025,0.5015780352,0.5995358276,9.7091655633
1520622054026392201,-0.0047108364,-0.0191430941,-0.0247847273,0.5412627698,0.6199181240,9.7296780088
1520622054031407201,-0.0054598951,-0.0162324579,-0.0236789127,0.5665166917,0.6738774762,9.7200824307
1520622054036424201,-0.0057037647,-0.0130375246,-0.0198663495,0.5821500720,0.6894650841,9.6978343285
1520622054041440201,-0.0049445012,-0.0092499588,-0.0195683036,0.5629089886,0.6966614252,9.7015010252
1520622054046456201,-0.0034376766,-0.0101242501,-0.0193072273,0.5448704729,0.6954636897,9.7353799450
1520622054051470201,-0.0036804446,-0.0054694804,-0.0165657323,0.5388576343,0.6702822091,9.7447601781
1520622054056486201,-0.0006605893,-0.0016773864,-0.0176246164,0.5508833115,0.6606881491,9.7400039064
1520622054061502201,0.0003475502,-0.0008086664,-0.0154554469,0.5556935823,0.6798740213,9.7143712098
1520622054066519201,-0.0001521895,0.0006451456,-0.0143612144,0.5232242541,0.6666860054,9.7309701244
1520622054071535201,0.0003545442,0.0038513007,-0.0146082398,0.4859446550,0.6702863302,9.6976272984
1520622054076550201,0.0001113411,0.0099710058,-0.0148316342,0.4883497904,0.6594938790,9.6825065410
1520622054081564201,0.0021248171,0.0143520309,-0.0183191184,0.4871472227,0.6558965514,9.7208725045
1520622054086580201,0.0023797227,0.0166817487,-0.0177607086,0.5244268218,0.6810755969,9.7460522587
1520622054091597201,0.0031362184,0.0198931013,-0.0199020220,0.5099960092,0.6990638271,9.7264187320
1520622054096612201,0.0021348102,0.0239779184,-0.0220333991,0.5280345249,0.7206469498,9.7413299795
1520622054101627201,0.0056542249,0.0245606089,-0.0214943953,0.5280345249,0.7398331966,9.7936077480
1520622054106644201,0.0074131442,0.0257326637,-0.0236531372,0.5196165509,0.7770072054,9.7878427141
1520622054111660201,0.0076655015,0.0274854399,-0.0252635407,0.5015780352,0.7782077507,9.8542593260
1520622054116676201,0.0086706498,0.0263151966,-0.0233804787,0.5184139832,0.7698124565,9.8912922471
1520622054121690201,0.0084187786,0.0257316006,-0.0231139123,0.5605038532,0.7530212125,9.8699803497
1520622054126708201,0.0081654568,0.0245674209,-0.0236634297,0.5292370926,0.7794047369,9.8075031822
1520622054131722201,0.0079123546,0.0234025128,-0.0239424012,0.5172114155,0.7770073927,9.7855418363
1520622054136739201,0.0081640455,0.0222305173,-0.0215168472,0.5617064209,0.7518219784,9.8165111921
1520622054141755201,0.0086698539,0.0242689490,-0.0209611272,0.5304396603,0.7422312901,9.8017170069
1520622054146770201,0.0061497383,0.0190230430,-0.0209964755,0.5304396603,0.7074562179,9.7750216068
1520622054151784201,0.0058952247,0.0155212312,-0.0191288646,0.5532884469,0.7134501404,9.7457397651
1520622054156800201,0.0046360882,0.0126025230,-0.0175254864,0.5749346657,0.7182450163,9.7954965868
1520622054161817201,0.0046365195,0.0096741091,-0.0121367994,0.5665166917,0.7158473910,9.7827972774
1520622054166833201,0.0041273590,0.0020855312,-0.0075943859,0.5593012855,0.7194453743,9.8374847656
1520622054171849201,0.0016106267,-0.0022935056,-0.0049176060,0.5617064209,0.7230426082,9.8316471277
1520622054176865201,0.0018644620,-0.0061069011,0.0045221335,0.6062014263,0.6894632109,9.8184631986
1520622054181879201,0.0011113927,-0.0087442258,0.0099144438,0.6037962908,0.7038530833,9.8231211524
1520622054186896201,-0.0014031912,-0.0143011840,0.0171816116,0.5761372334,0.6834698503,9.8129509519
1520622054191911201,-0.0036685424,-0.0207292837,0.0233594599,0.5965808846,0.6414983433,9.8302250521
1520622054196928201,-0.0036742702,-0.0280277370,0.0284442548,0.5725295303,0.6355045144,9.8327892879
1520622054201942201,-0.0071921558,-0.0315424836,0.0346466675,0.5617064209,0.6115225488,9.8259451564
1520622054206958201,-0.0097047090,-0.0330084036,0.0376162241,0.5701243949,0.6235132975,9.8270136716
1520622054211974201,-0.0119659202,-0.0347670664,0.0411241828,0.5593012855,0.6307089829,9.8108419857
1520622054216989201,-0.0124724775,-0.0376811086,0.0411028854,0.5304396603,0.6295120903,9.8204212280
1520622054222006201,-0.0152395794,-0.0394290419,0.0405535890,0.5388576343,0.6810744729,9.8179647231
1520622054227021201,-0.0167504068,-0.0411757545,0.0397314132,0.5328447958,0.6534947115,9.7913208323
1520622054232036201,-0.0159914530,-0.0382652561,0.0411049733,0.5124011447,0.6942670781,9.8019393563
1520622054237053201,-0.0142318280,-0.0359247495,0.0378729402,0.5075908738,0.6894708911,9.7764236869
1520622054242070201,-0.0157332816,-0.0297997093,0.0354875123,0.5412627698,0.6930656898,9.7470388384
1520622054247085201,-0.0109559615,-0.0268796227,0.0338776000,0.5737320980,0.7146476887,9.7129995791
1520622054252099201,-0.0096941434,-0.0227990187,0.0336358437,0.5087934415,0.6702845506,9.7450528045
1520622054257115201,-0.0069265514,-0.0184184266,0.0304175053,0.5268319572,0.6750797074,9.7541697029
1520622054262132201,-0.0016497151,-0.0184149021,0.0298666123,0.5641115563,0.6750768040,9.7328882550
1520622054267148201,0.0023726500,-0.0172477887,0.0298680371,0.5593012855,0.6450986680,9.7097214296
1520622054272163201,0.0071466221,-0.0184143699,0.0309324606,0.5075908738,0.6786786272,9.7194891572
1520622054277178201,0.0106608030,-0.0210339954,0.0303648269,0.5111985769,0.6618903803,9.7252811325
1520622054282193201,0.0119208177,-0.0181182010,0.0298436323,0.5448704729,0.6283118260,9.6959325336
1520622054287210201,0.0151870007,-0.0178218944,0.0284870585,0.5099960092,0.6355093847,9.6927785323
1520622054292226201,0.0164437144,-0.0178221306,0.0287552708,0.4655010038,0.6582965181,9.6769193866
1520622054297241201,0.0224777090,-0.0131459603,0.0244509045,0.4787292487,0.6427066624,9.6791301203
1520622054302256201,0.0267484326,-0.0113835961,0.0198570285,0.4642984361,0.6535000501,9.6746114811
1520622054307273201,0.0285083674,-0.0081660222,0.0155494810,0.4534753267,0.6271198037,9.6619589686
1520622054312288201,0.0300178775,-0.0064149390,0.0147483815,0.4955651967,0.6439044916,9.6998836714
1520622054317304201,0.0330321462,-0.0064093869,0.0131195054,0.4811343841,0.6954686537,9.7022981384
1520622054322320201,0.0345330824,-0.0090203305,0.0090385089,0.4582855976,0.7218515225,9.7024948090
1520622054327335201,0.0360386760,-0.0104759339,0.0087540472,0.5075908738,0.7410339293,9.7670762537
1520622054332351201,0.0365409208,-0.0110599629,0.0092897594,0.4703112747,0.7386385519,9.7534957216
1520622054337367201,0.0390557125,-0.0098941687,0.0095645304,0.4222085662,0.7458371408,9.7644162035
1520622054342383201,0.0400624956,-0.0072647583,0.0071477582,0.4294239725,0.7242520512,9.7655291652
1520622054347399201,0.0413198718,-0.0058037012,0.0058038105,0.4053726182,0.7218556436,9.7553063094
1520622054352414201,0.0420760147,-0.0031765745,0.0041991428,0.3560673420,0.7314526070,9.7174261115
1520622054357431201,0.0395589414,-0.0037494016,0.0001411754,0.3524596388,0.7266563263,9.7407087831
1520622054362446201,0.0393087011,-0.0019968223,-0.0014682948,0.3260031491,0.7410480719,9.7827894446
1520622054367462201,0.0362940012,0.0009260395,-0.0052281058,0.3608776128,0.7242573899,9.7545749138
1520622054372477201,0.0350334259,0.0018171831,-0.0117122044,0.4017649151,0.6846825714,9.7623505378
1520622054377494201,0.0340273132,0.0035760230,-0.0157551874,0.3861315348,0.6918786316,9.7741171270
1520622054382508201,0.0330201381,0.0021187065,-0.0157644360,0.4234111339,0.7470361876,9.7737004807
1520622054387524201,0.0299998476,-0.0002084522,-0.0176704412,0.4606907330,0.7566264075,9.7640311176
1520622054392540201,0.0259753263,-0.0031246012,-0.0174146586,0.4546778944,0.7362414886,9.7524880821
1520622054397557201,0.0224542377,-0.0057506256,-0.0166164946,0.4799318164,0.7278455388,9.7557368932
1520622054402571201,0.0189314750,-0.0104199838,-0.0144811626,0.4486650559,0.7206531314,9.7688318242
1520622054407588201,0.0176675438,-0.0165424649,-0.0134433302,0.4222085662,0.6882784005,9.7679587636
1520622054412603201,0.0121317991,-0.0214967110,-0.0140119466,0.4354368110,0.6858790894,9.7620216269
1520622054417619201,0.0086064451,-0.0264501695,-0.0145842967,0.4498676236,0.7002676505,9.7397863990
1520622054422636201,0.0055843473,-0.0314056164,-0.0143459426,0.4414496496,0.6870777615,9.7793940916
1520622054427651201,0.0055776199,-0.0348956748,-0.0168075326,0.4186008630,0.6678932943,9.7250144312
1520622054432665201,0.0028089812,-0.0366385091,-0.0192506503,0.3777135608,0.6379179681,9.7231173487
1520622054437681201,-0.0034821106,-0.0421736344,-0.0206339503,0.4017649151,0.6103358652,9.7310451501
1520622054442699201,-0.0067542683,-0.0436209105,-0.0246971867,0.4186008630,0.5923474476,9.7006830766
1520622054447714201,-0.0112818616,-0.0433160011,-0.0303680265,0.3512570711,0.5899544117,9.7478266566
1520622054452729201,-0.0148057572,-0.0447619188,-0.0349718880,0.3560673420,0.5731660711,9.7675526543
1520622054457746201,-0.0180738652,-0.0424175539,-0.0403589538,0.4149931599,0.5767589031,9.7111926887
1520622054462760201,-0.0215955575,-0.0409437988,-0.0471049517,0.3560673420,0.5839583350,9.7233806600
1520622054467776201,-0.0248656021,-0.0403491979,-0.0519642642,0.3560673420,0.5515815435,9.7280608080
1520622054472792201,-0.0273804800,-0.0409293094,-0.0533167726,0.4101828891,0.5395859246,9.7205729101
1520622054477808201,-0.0303945684,-0.0391792700,-0.0543800170,0.4354368110,0.5491770811,9.7435606283
1520622054482823201,-0.0341673008,-0.0394626617,-0.0578923359,0.4570830299,0.5395822718,9.7201164129
1520622054487840201,-0.0366815201,-0.0400449585,-0.0584332066,0.4618933007,0.5851492333,9.7362951731
1520622054492855201,-0.0394453251,-0.0403403397,-0.0573481122,0.4426522173,0.5695619064,9.7504433829
1520622054497870201,-0.0422059583,-0.0368411663,-0.0586690307,0.4546778944,0.6007386208,9.7165937549
1520622054502885201,-0.0426980454,-0.0307295724,-0.0559159535,0.4438547850,0.5983411829,9.7399443181
1520622054507903201,-0.0452094067,-0.0298578602,-0.0553635252,0.4173982953,0.6007415242,9.7297401951
1520622054512919201,-0.0462109051,-0.0266508390,-0.0561488421,0.4727164101,0.6175251818,9.7501039829
1520622054517934201,-0.0441908820,-0.0205353468,-0.0544826157,0.5027806029,0.5911417510,9.7138106194
1520622054522949201,-0.0451903182,-0.0179205642,-0.0517552821,0.5328447958,0.6187196392,9.6890860752
1520622054527966201,-0.0434282822,-0.0170515489,-0.0495875127,0.5593012855,0.6259124212,9.6702272446
1520622054532980201,-0.0391543164,-0.0179342268,-0.0458144737,0.6001885877,0.6295066581,9.6396100219
1520622054537995201,-0.0371387391,-0.0159017602,-0.0428266411,0.5797449366,0.5851400546,9.6514737129
1520622054543013201,-0.0336180543,-0.0164940773,-0.0387794329,0.5869603429,0.6055248799,9.6269785808
1520622054548029201,-0.0285903253,-0.0179614142,-0.0342006026,0.5965808846,0.5971301476,9.6350281334
1520622054553043201,-0.0280835524,-0.0165115790,-0.0314849616,0.6086065617,0.5815403855,9.6267912765
1520622054558061201,-0.0215490419,-0.0185603657,-0.0271839237,0.6001885877,0.6007272879,9.6338273662
1520622054563075201,-0.0152643287,-0.0173945515,-0.0263750618,0.6001885877,0.5875367433,9.6849745630
1520622054568091201,-0.0104838056,-0.0153631872,-0.0225807254,0.5773398012,0.5911359441,9.6944906026
1520622054573107201,-0.0079692805,-0.0153673016,-0.0206915713,0.5556935823,0.5947350512,9.6447255956
1520622054578123201,-0.0016828972,-0.0136216321,-0.0187960796,0.5184139832,0.6091276397,9.6613444356
1520622054583138201,0.0043491568,-0.0121587044,-0.0201488950,0.5087934415,0.6331111975,9.6579282574
1520622054588154201,0.0113904049,-0.0095378575,-0.0185186801,0.5099960092,0.6343102443,9.6311860721
1520622054593169201,0.0164211801,-0.0048686369,-0.0203862665,0.4534753267,0.6211241016,9.6538298076
1520622054598186201,0.0209522626,0.0024250328,-0.0230445494,0.4318291079,0.6247232088,9.6877391653
1520622054603200201,0.0277490334,0.0108771140,-0.0227221355,0.4534753267,0.6163275399,9.6828880838
1520622054608217201,0.0322771678,0.0158389790,-0.0251276571,0.4799318164,0.6199229007,9.7477071260
1520622054613232201,0.0383157807,0.0234268092,-0.0285981549,0.5111985769,0.6331110102,9.7462277879
1520622054618248201,0.0428527517,0.0324571312,-0.0269143649,0.5496807438,0.6462985577,9.7597860908
1520622054623264201,0.0483857246,0.0353716856,-0.0263613102,0.6206322388,0.6786698232,9.7474424807
1520622054628281201,0.0541721056,0.0388647370,-0.0241810006,0.6422784577,0.7074475075,9.7588251651
1520622054633295201,0.0581970190,0.0406087920,-0.0220107625,0.6254425097,0.7386264697,9.7601207770
1520622054638311201,0.0617182801,0.0420634509,-0.0206534518,0.6482912962,0.7386246902,9.7529255172
1520622054643327201,0.0652401528,0.0423452873,-0.0165995744,0.6434810254,0.7614087329,9.7517879761
1520622054648343201,0.0697634847,0.0411764224,-0.0147230464,0.6110116971,0.7829957893,9.7892715710
1520622054653357201,0.0725306689,0.0408751944,-0.0106722150,0.5713269626,0.7877954418,9.8431117824
1520622054658375201,0.0752987824,0.0432051683,-0.0098479266,0.5352499312,0.7818025495,9.7760644315
1520622054663390201,0.0773150262,0.0481624067,-0.0108960516,0.5617064209,0.7877961911,9.7885846570
1520622054668405201,0.0800842452,0.0534156955,-0.0135666289,0.5568961500,0.7758051615,9.8107239058
1520622054673422201,0.0798399404,0.0580755642,-0.0127189552,0.5629089886,0.7949909400,9.8269166864
1520622054678438201,0.0821077888,0.0624464897,-0.0124192635,0.5304396603,0.8045865922,9.8016562012
1520622054683452201,0.0828627870,0.0639066215,-0.0134917318,0.5124011447,0.7961940141,9.7902185229
1520622054688469201,0.0823675401,0.0706140961,-0.0156040346,0.5256293895,0.8057861072,9.8214582993
1520622054693484201,0.0823751536,0.0770281979,-0.0169078562,0.5232242541,0.8129811371,9.8389068527
1520622054698501201,0.0828793821,0.0793645700,-0.0187848262,0.5520858792,0.8429573998,9.8513802814
1520622054703515201,0.0806191471,0.0814077462,-0.0203883395,0.6001885877,0.8621399002,9.8334612104
1520622054708532201,0.0808711948,0.0822834551,-0.0209232287,0.6110116971,0.8813253040,9.8298507236
1520622054713548201,0.0796149633,0.0819893930,-0.0201114805,0.5917706137,0.9041104707,9.8486100903
1520622054718564201,0.0783561796,0.0796549108,-0.0190447480,0.5448704729,0.9101098255,9.8827629155
1520622054723579201,0.0740838800,0.0796539655,-0.0193073596,0.5520858792,0.9017152806,9.8757280068
1520622054728594201,0.0715745808,0.0799334390,-0.0152422808,0.5472756083,0.8729362851,9.8699921714
1520622054733610201,0.0683057593,0.0781823950,-0.0147084602,0.5773398012,0.8729339436,9.8592402494
1520622054738625201,0.0657924613,0.0773043432,-0.0136282786,0.5352499312,0.8513526940,9.8364280954
1520622054743641201,0.0627726923,0.0729265663,-0.0114916570,0.5544910146,0.8453554934,9.8711109798
1520622054748657201,0.0574941780,0.0694162296,-0.0071797985,0.5893654783,0.8237682496,9.8731168692
1520622054753672201,0.0522124999,0.0650382951,-0.0053095224,0.5593012855,0.8009869231,9.8664588493
1520622054758689201,0.0459247013,0.0594922433,-0.0026346339,0.5725295303,0.8117781566,9.8837517290
1520622054763705201,0.0403956802,0.0565645771,0.0016821375,0.5833526397,0.7997859094,9.8627394857
1520622054768720201,0.0331076142,0.0548068589,0.0041172470,0.5352499312,0.8201750430,9.7922970280
1520622054773736201,0.0290819089,0.0524800348,0.0019425627,0.5460730406,0.8189750597,9.8444893297
1520622054778752201,0.0235515705,0.0495567392,0.0046360587,0.6013911554,0.8609406661,9.8520449780
1520622054783767201,0.0172704170,0.0495499073,0.0062710022,0.5593012855,0.8489525400,9.8373584769
1520622054788784201,0.0092270040,0.0472113099,0.0078914280,0.5244268218,0.8225741668,9.8539936644
1520622054793799201,0.0021876416,0.0437061113,0.0100421864,0.5280345249,0.8441584135,9.8585860769
1520622054798815201,-0.0020873866,0.0413726329,0.0103028819,0.5111985769,0.8465580055,9.8389911618
1520622054803830201,-0.0051099666,0.0367114843,0.0094612755,0.5292370926,0.8141798092,9.8504685977
1520622054808846201,-0.0126543887,0.0320434645,0.0105218915,0.5388576343,0.7770057068,9.8504112067
1520622054813862201,-0.0186923390,0.0259169275,0.0123802293,0.5593012855,0.7829998167,9.8571792378
1520622054818877201,-0.0227176523,0.0224180094,0.0126315657,0.5701243949,0.7865963950,9.8721782557
1520622054823894201,-0.0267434517,0.0177499111,0.0142267393,0.5184139832,0.8057866692,9.8226906736
1520622054828909201,-0.0330291803,0.0145385778,0.0155666830,0.5232242541,0.8057862945,9.8400760127
1520622054833924201,-0.0380623704,0.0098773700,0.0144582645,0.5376550666,0.8153782940,9.7992511589
1520622054838940201,-0.0415842941,0.0069614179,0.0147131136,0.5304396603,0.7877986262,9.8318883148
1520622054843956201,-0.0440993955,0.0049185563,0.0155138570,0.5111985769,0.7554233334,9.8111885767
1520622054848972201,-0.0481244853,0.0028823884,0.0136119417,0.4895523581,0.7638190022,9.8125532263
1520622054853988201,-0.0508907052,0.0025950199,0.0117210313,0.4919574935,0.7518274107,9.7416507284
1520622054859004201,-0.0556696914,0.0005585565,0.0098205161,0.4871472227,0.7110570109,9.7626558973
1520622054864019201,-0.0561747511,-0.0006042648,0.0087303737,0.4667035716,0.6774826713,9.7570769050
1520622054869034201,-0.0574354636,-0.0017615540,0.0054772642,0.4486650559,0.6894754804,9.7444572039
1520622054874051201,-0.0609612489,-0.0037865986,-0.0004837730,0.4522727590,0.6714880931,9.7595475003
1520622054879067201,-0.0599620322,-0.0064006527,-0.0034816525,0.4534753267,0.6906742462,9.7304634869
1520622054884080201,-0.0607153524,-0.0043539721,-0.0061701497,0.4606907330,0.6858771225,9.7013443351
1520622054889098201,-0.0619743948,-0.0049314060,-0.0083366294,0.4522727590,0.6642932505,9.6723937197
1520622054894115201,-0.0614736828,-0.0040468575,-0.0121185362,0.4474624882,0.6307176933,9.6852568649
1520622054899129201,-0.0599667170,-0.0014092374,-0.0175122466,0.4330316756,0.6475067832,9.6737595153
1520622054904145201,-0.0592136987,-0.0014060283,-0.0185958304,0.4390445142,0.6714891233,9.6992447703
1520622054909161201,-0.0584608999,-0.0014020908,-0.0199499601,0.4618933007,0.6666907821,9.6711355966
1520622054914177201,-0.0556986318,-0.0011016105,-0.0229288758,0.5148062801,0.6954660312,9.6845382375
1520622054919192201,-0.0529366734,-0.0016781975,-0.0248322772,0.5087934415,0.6738819719,9.7020499702
1520622054924208201,-0.0509232523,-0.0013947665,-0.0215872371,0.4883497904,0.6630913003,9.7173673516
1520622054929223201,-0.0476576887,-0.0028525945,-0.0207927823,0.4907549258,0.6774807981,9.6998977501
1520622054934239201,-0.0418748675,-0.0005185254,-0.0210562781,0.4919574935,0.6942686703,9.6766267952
1520622054939254201,-0.0388571292,-0.0002317868,-0.0188952885,0.4342342433,0.6511041108,9.6923386055
1520622054944270201,-0.0358451501,-0.0025602247,-0.0194597657,0.4510701913,0.6391113953,9.6956728600
1520622054949287201,-0.0315721879,-0.0010979862,-0.0208093140,0.4703112747,0.6582961435,9.7012775894
1520622054954302201,-0.0280495154,0.0026935763,-0.0215985857,0.4570830299,0.6846782631,9.7141642031
1520622054959318201,-0.0245315474,0.0041591617,-0.0242994634,0.4198034308,0.6846811665,9.6657170138
1520622054964334201,-0.0225229601,0.0029951396,-0.0245826354,0.4282214047,0.7038667577,9.6888592480
1520622054969350201,-0.0184972509,0.0067854422,-0.0248317488,0.4101828891,0.7458380774,9.6692374498
1520622054974366201,-0.0132116172,0.0126137434,-0.0242559965,0.4041700505,0.7230548777,9.6983717914
1520622054979381201,-0.0111999916,0.0146593218,-0.0261379899,0.3993597796,0.7194578310,9.6926113998
1520622054984396201,-0.0081781644,0.0169813815,-0.0223381634,0.4173982953,0.7362443921,9.6494201269
1520622054989412201,-0.0056622279,0.0193141707,-0.0225955918,0.4474624882,0.7026661187,9.6503223860
1520622054994429201,-0.0028927110,0.0210540912,-0.0190702906,0.4306265402,0.6750872002,9.6400538560
1520622054999443201,-0.0028892846,0.0216281191,-0.0158192937,0.4029674828,0.6930764607,9.6368191003
1520622055004460201,-0.0001253072,0.0207521348,-0.0147489133,0.3753084254,0.6966760362,9.6487062481
1520622055009476201,0.0041476942,0.0204580534,-0.0131357953,0.3861315348,0.6930777720,9.6718472897
1520622055014491201,0.0064134295,0.0227871020,-0.0120400276,0.4065751859,0.7290503925,9.6448839127
1520622055019507201,0.0076759494,0.0265726794,-0.0109312775,0.3993597796,0.6990724438,9.6205783534
1520622055024522201,0.0114455651,0.0271591106,-0.0117454699,0.3969546442,0.7170597375,9.6659078377
1520622055029538201,0.0116983576,0.0274469515,-0.0103909840,0.3981572119,0.7266527672,9.6961025207
1520622055034554201,0.0124535282,0.0277357176,-0.0093079775,0.3909418056,0.7098653633,9.6590005153
1520622055039570201,0.0147151706,0.0265659666,-0.0074272491,0.4390445142,0.6954719318,9.6422763297
1520622055044586201,0.0164725923,0.0259868005,-0.0085171459,0.4198034308,0.7086639750,9.6715043467
1520622055049600201,0.0174738712,0.0227805076,-0.0080023750,0.4089803213,0.7254527839,9.7064576401
1520622055054618201,0.0187261822,0.0184044045,-0.0058736877,0.3981572119,0.6942759758,9.6879990852
1520622055059633201,0.0172180325,0.0163561094,-0.0029104441,0.3789161285,0.6786886489,9.7288766059
1520622055064649201,0.0202327363,0.0148967260,-0.0015744307,0.3560673420,0.6990758156,9.7174576837
1520622055069664201,0.0194802433,0.0143063773,0.0011279822,0.3296108523,0.7242598250,9.6560970092
1520622055074680201,0.0192329864,0.0151709628,0.0046522148,0.3368262586,0.7242592631,9.6967018173
1520622055079695201,0.0204930442,0.0177939159,0.0046698890,0.3560673420,0.7326517475,9.6755877598
1520622055084711201,0.0189906144,0.0201171170,0.0073959330,0.3464468003,0.7302542159,9.6780080269
1520622055089726201,0.0205007361,0.0206953778,0.0092914001,0.3320159877,0.7422467440,9.7397304237
1520622055094743201,0.0189975574,0.0221429685,0.0125518666,0.3849289671,0.7350477805,9.6834395075
1520622055099757201,0.0192494247,0.0212630860,0.0147090978,0.4005623473,0.7398431246,9.6577154974
1520622055104774201,0.0217650475,0.0212553293,0.0179509813,0.4234111339,0.7554301705,9.6539914680
1520622055109790201,0.0215121609,0.0186262143,0.0203663533,0.4210059985,0.7638243408,9.6702767081
1520622055114806201,0.0200021607,0.0142424723,0.0249350876,0.4258162693,0.7518325620,9.7074301878
1520622055119820201,0.0212594389,0.0118987766,0.0297847954,0.4462599204,0.7326447230,9.7060877673
1520622055124838201,0.0232714957,0.0110159410,0.0332914890,0.4438547850,0.7518311571,9.7002817483
1520622055129853201,0.0245239400,0.0072247923,0.0346129848,0.4101828891,0.7866088518,9.6645491164
1520622055134868201,0.0252753706,0.0045989848,0.0359443063,0.4474624882,0.7914025100,9.6851001735
1520622055139884201,0.0277884843,0.0022579667,0.0399800429,0.4510701913,0.7554280164,9.6746408429
1520622055144901201,0.0287943813,0.0019633338,0.0413286824,0.4390445142,0.7494332508,9.6759258841
1520622055149915201,0.0303088076,0.0031127087,0.0475573300,0.4438547850,0.7578268592,9.6793573104
1520622055154931201,0.0315630985,0.0001935283,0.0496971327,0.4486650559,0.7938006972,9.6583568188
1520622055159947201,0.0318150951,-0.0015648785,0.0534709700,0.4582855976,0.7890033863,9.6617542876
1520622055164963201,0.0340834258,0.0025117489,0.0548506221,0.4486650559,0.7734153100,9.6548902657
1520622055169979201,0.0375991082,0.0031068228,0.0507903458,0.4173982953,0.8105910983,9.6935090982
1520622055174995201,0.0348348681,0.0042763769,0.0489105508,0.3813212639,0.7854119592,9.7310734125
1520622055180010201,0.0370965223,0.0074970614,0.0435198863,0.3921443734,0.7710214312,9.7181985156
1520622055185025201,0.0388594012,0.0115829614,0.0413833753,0.3873341025,0.7878097718,9.7007968057
1520622055190042201,0.0373511771,0.0145107846,0.0359974885,0.3909418056,0.7782163674,9.6903117497
1520622055195058201,0.0358405340,0.0159831420,0.0300593946,0.3392313940,0.7746229735,9.7477636289
1520622055200072201,0.0393574043,0.0174523694,0.0260057874,0.3596750451,0.7422445899,9.7324883437
1520622055205089201,0.0386052249,0.0192025665,0.0252088884,0.3813212639,0.7746196954,9.7217867849
1520622055210105201,0.0391106414,0.0224130923,0.0233385877,0.3692955868,0.7758197724,9.7207405222
1520622055215121201,0.0393591293,0.0221298189,0.0203598930,0.3656878837,0.7650277896,9.7219483054
1520622055220135201,0.0386029511,0.0227224907,0.0165780968,0.3488519357,0.7926093306,9.7708953274
1520622055225153201,0.0393590470,0.0241789802,0.0168583579,0.3632827482,0.7638288365,9.7986743858
1520622055230167201,0.0373459316,0.0233091380,0.0149616012,0.3572699097,0.7494396197,9.7638826245
1520622055235182201,0.0350802042,0.0239070465,0.0090182382,0.3344211231,0.7806190503,9.8035875122
1520622055240199201,0.0345765127,0.0253739702,0.0052426445,0.3175851752,0.7698280977,9.8548962411
1520622055245215201,0.0325621664,0.0239228158,0.0028003498,0.3139774720,0.7902137659,9.8316685984
1520622055250230201,0.0315510395,0.0224786111,-0.0020787249,0.3320159877,0.7806192376,9.8280159454
1520622055255246201,0.0287859213,0.0236510790,-0.0050407034,0.3500545034,0.7722238497,9.8266864109
1520622055260262201,0.0247626780,0.0224868793,-0.0061243118,0.3476493680,0.7926094242,9.8185549346
1520622055265279201,0.0245081253,0.0207413874,-0.0072193671,0.3632827482,0.7878116450,9.8358396056
1520622055270294201,0.0224928106,0.0184153510,-0.0093977852,0.3548647743,0.7518380879,9.8022544465
1520622055275309201,0.0202259344,0.0163827859,-0.0123851511,0.3344211231,0.7578353822,9.8152311692
1520622055280325201,0.0177069205,0.0125967162,-0.0134915676,0.3632827482,0.7530365727,9.8044956296
1520622055285340201,0.0149398185,0.0108487829,-0.0140408640,0.3680930191,0.7662267427,9.8230302499
1520622055290356201,0.0119170229,0.0076518413,-0.0175768139,0.3801186962,0.7794163508,9.8380082080
1520622055295373201,0.0106563026,0.0035675950,-0.0159823281,0.4113854568,0.7722190731,9.8470080442
1520622055300387201,0.0088943057,0.0009422598,-0.0151874311,0.3993597796,0.7746182905,9.8436363243
1520622055305404201,0.0056202074,-0.0037182588,-0.0162991166,0.3765109931,0.7998020189,9.8368613005
1520622055310420201,0.0058653041,-0.0077953585,-0.0171423442,0.3897392379,0.7938052866,9.8239548081
1520622055315436201,0.0025930484,-0.0130473873,-0.0150119252,0.4161957276,0.8213834558,9.8062382427
1520622055320451201,0.0020866636,-0.0171327951,-0.0128777478,0.4101828891,0.8081933794,9.7760938879
1520622055325467201,0.0003228594,-0.0223864185,-0.0099384914,0.3680930191,0.8297811852,9.8043739717
1520622055330483201,0.0003167436,-0.0270492994,-0.0097035149,0.4005623473,0.8129906904,9.8052364499
1520622055335497201,0.0005626283,-0.0320071085,-0.0081184987,0.3885366702,0.7710217122,9.8669880569
1520622055340513201,-0.0002009477,-0.0392927454,-0.0079021297,0.3741058577,0.7650271340,9.8194864621
1520622055345530201,0.0003000661,-0.0404580866,-0.0079119555,0.3668904514,0.7734216789,9.8218727950
1520622055350544201,0.0007970733,-0.0457079102,-0.0060590832,0.3536622065,0.7710244283,9.8068960179
1520622055355561201,0.0010464825,-0.0462869387,-0.0074167256,0.3560673420,0.7590328368,9.7801549902
1520622055360577201,0.0012966836,-0.0462831981,-0.0087699218,0.3668904514,0.7674259768,9.8323379373
1520622055365592201,0.0015452969,-0.0489084741,-0.0077082127,0.3801186962,0.7602301040,9.8345404856
1520622055370608201,0.0055632202,-0.0503609077,-0.0088089793,0.3704981545,0.7434428873,9.8032726100
1520622055375624201,0.0040562623,-0.0500715708,-0.0082628641,0.3608776128,0.7626298834,9.7824289499
1520622055380640201,0.0055635730,-0.0497766818,-0.0093456249,0.3861315348,0.7614287761,9.7473199944
1520622055385656201,0.0088367462,-0.0462838866,-0.0074311940,0.3873341025,0.7446407165,9.7763782590
1520622055390672201,0.0108474465,-0.0454060316,-0.0085104421,0.3717007222,0.7422436533,9.8276670974
1520622055395688201,0.0118496976,-0.0462739639,-0.0106833455,0.4005623473,0.7350465629,9.7809074339
1520622055400702201,0.0128572687,-0.0445252629,-0.0106718738,0.3272057169,0.7470436804,9.7769611731
1520622055405719201,0.0148704311,-0.0424847836,-0.0106600460,0.3584724774,0.7146644538,9.7790127017
1520622055410734201,0.0156291653,-0.0395735567,-0.0095570318,0.3476493680,0.7038730329,9.7756421394
1520622055415751201,0.0168878157,-0.0378240288,-0.0098165728,0.3620801805,0.7362487004,9.7801186824
1520622055420766201,0.0204104882,-0.0340324663,-0.0106058445,0.3500545034,0.6990762839,9.7953798539
1520622055425780201,0.0204164276,-0.0296616984,-0.0105724982,0.3512570711,0.7278555604,9.7837186451
1520622055430797201,0.0204195953,-0.0273306222,-0.0105547135,0.3404339617,0.7254581225,9.8093934963
1520622055435813201,0.0246946236,-0.0249971438,-0.0108154090,0.3825238317,0.7134634402,9.7764554820
1520622055440828201,0.0246977481,-0.0223732262,-0.0113364930,0.3813212639,0.7386454827,9.7624969035
1520622055445845201,0.0234433632,-0.0217953200,-0.0097064379,0.3584724774,0.7398464027,9.7603938423
1520622055450858201,0.0221929809,-0.0185964099,-0.0075152831,0.3548647743,0.7266561390,9.7825225554
1520622055455875201,0.0226956648,-0.0191818958,-0.0064384792,0.3825238317,0.7206582827,9.7671513143
1520622055460892201,0.0236991038,-0.0191756745,-0.0086047132,0.3729032900,0.7350487171,9.7614202030
1520622055465907201,0.0247112069,-0.0139296308,-0.0088371105,0.3476493680,0.7446438073,9.7895481093
1520622055470923201,0.0229518956,-0.0139295915,-0.0091043893,0.3656878837,0.7458415428,9.7672906290
1520622055475938201,0.0242084407,-0.0112949836,-0.0134154495,0.3813212639,0.7482386061,9.7555146851
1520622055480954201,0.0249662106,-0.0077951602,-0.0144723562,0.4017649151,0.7470378735,9.6890746630
1520622055485969201,0.0259740012,-0.0060471876,-0.0141903387,0.3897392379,0.7542336526,9.6752389701
1520622055490986201,0.0249672260,-0.0057496410,-0.0166211618,0.3789161285,0.7722216019,9.7043803744
1520622055496001201,0.0224575778,-0.0045909149,-0.0144432351,0.4246137016,0.7902051492,9.6946208905
1520622055501017201,0.0239701616,-0.0028500298,-0.0114566920,0.3981572119,0.8093934565,9.6890489726
1520622055506034201,0.0254817377,-0.0002277067,-0.0111689387,0.4173982953,0.7997988345,9.7121139255
1520622055511049201,0.0264915944,0.0023915057,-0.0097980684,0.4173982953,0.7866082899,9.6912081970
1520622055516064201,0.0272492741,0.0050135334,-0.0095089149,0.4318291079,0.7626243575,9.6829561155
1520622055521081201,0.0297658692,0.0073441373,-0.0089547056,0.4125880245,0.7962017879,9.7261099812
1520622055526096201,0.0315245219,0.0073462833,-0.0094990645,0.4029674828,0.7902068350,9.7250473244
1520622055531111201,0.0312752930,0.0096809033,-0.0108335426,0.3753084254,0.8153909381,9.7322648483
1520622055536128201,0.0305204282,0.0088057259,-0.0105682657,0.4137905922,0.8081930985,9.7226001509
1520622055541143201,0.0322853301,0.0140557071,-0.0121547926,0.3921443734,0.8345758736,9.7378929878
1520622055546159201,0.0315301163,0.0140597824,-0.0137766679,0.4041700505,0.8453672009,9.6843067913
1520622055551173201,0.0320324082,0.0146463905,-0.0151258846,0.3813212639,0.8285810145,9.6973291416
1520622055556190201,0.0337882069,0.0146580061,-0.0191873401,0.3656878837,0.8165908278,9.6974930007
1520622055561206201,0.0332861424,0.0169976266,-0.0224151727,0.3969546442,0.8129909714,9.6797600180
1520622055566222201,0.0330341889,0.0184631920,-0.0256501413,0.3873341025,0.8189874228,9.7216849941
1520622055571238201,0.0335400444,0.0216722608,-0.0269793503,0.3897392379,0.8297794993,9.6763274457
1520622055576253201,0.0327856657,0.0219662637,-0.0280579107,0.4041700505,0.8357740775,9.6599111230
1520622055581268201,0.0335352145,0.0216882863,-0.0329313600,0.3692955868,0.8297810915,9.6788507196
1520622055586285201,0.0345394023,0.0225701180,-0.0356320166,0.3777135608,0.8069967678,9.6683317060
1520622055591300201,0.0327799185,0.0237415228,-0.0380547703,0.3765109931,0.8129925636,9.6694997084
1520622055596316201,0.0337859096,0.0257881642,-0.0404759886,0.3692955868,0.8105948447,9.6614372697
1520622055601331201,0.0320242264,0.0255033748,-0.0431804036,0.3548647743,0.8321804963,9.6964210009
1520622055606348201,0.0317728845,0.0257961178,-0.0437188056,0.4005623473,0.8561597456,9.6634127912
1520622055611364201,0.0302674634,0.0260803557,-0.0412788691,0.4077777536,0.8741462900,9.6458928615
1520622055616380201,0.0287560205,0.0240429870,-0.0423738140,0.4462599204,0.8693467312,9.6641172803
1520622055621395201,0.0267443988,0.0234608871,-0.0429156181,0.4186008630,0.8465652174,9.6783544415
1520622055626411201,0.0257402581,0.0237496925,-0.0420998905,0.4077777536,0.8585574645,9.6784480936
1520622055631425201,0.0239793159,0.0214135566,-0.0404911327,0.4077777536,0.8465660603,9.6587033398
1520622055636442201,0.0214576243,0.0179290694,-0.0453829686,0.3957520765,0.8501644182,9.6297632835
1520622055641458201,0.0196949727,0.0167693980,-0.0478235070,0.4017649151,0.8429691073,9.6564410852
1520622055646474201,0.0184363655,0.0147270287,-0.0470250973,0.4125880245,0.8129897538,9.6633378369
1520622055651488201,0.0186877074,0.0144342858,-0.0464866953,0.4113854568,0.8153881283,9.6633472033
1520622055656505201,0.0166755565,0.0129758471,-0.0462235310,0.4101828891,0.7866088518,9.6970891471
1520622055661522201,0.0159183159,0.0103523626,-0.0459715927,0.4089803213,0.7902063667,9.6796651849
1520622055666537201,0.0161681603,0.0083083987,-0.0443643457,0.4222085662,0.7974001790,9.6783672693
1520622055671553201,0.0156639749,0.0056791852,-0.0419485069,0.3957520765,0.7998005204,9.6821088737
1520622055676568201,0.0174246035,0.0056747754,-0.0400579527,0.3933469411,0.8189869545,9.6437628239
1520622055681583201,0.0189339332,0.0056702671,-0.0381669318,0.4161957276,0.8441671238,9.6621101749
1520622055686600201,0.0186794196,0.0021684553,-0.0362993208,0.4173982953,0.8381713281,9.6899957715
1520622055691615201,0.0184267526,-0.0004613882,-0.0336134029,0.4125880245,0.8129897538,9.6947157237
1520622055696631201,0.0209437867,0.0018677588,-0.0325181019,0.4113854568,0.8009984432,9.6866041144
1520622055701645201,0.0214478349,0.0024485395,-0.0317029515,0.4234111339,0.8057940683,9.6353480525
1520622055706663201,0.0227025688,0.0009913807,-0.0314458546,0.4210059985,0.8081925365,9.6098019570
1520622055711678201,0.0247113325,0.0001194716,-0.0319973494,0.4462599204,0.8165845526,9.6908980422
1520622055716694201,0.0274764546,0.0004104823,-0.0314591685,0.4438547850,0.8033941953,9.7130150502
1520622055721710201,0.0292326885,-0.0010428374,-0.0325557346,0.4402470819,0.7818099486,9.6863419025
1520622055726726201,0.0322479216,-0.0016258819,-0.0320246897,0.4198034308,0.8213831748,9.7155558991
1520622055731740201,0.0345126807,-0.0030986723,-0.0258174500,0.4558804621,0.8357700501,9.7430821703
1520622055736757201,0.0382782506,-0.0048404036,-0.0277316106,0.4642984361,0.8405659562,9.6976719433
1520622055741773201,0.0410424044,-0.0054242750,-0.0269295531,0.4859446550,0.8441616916,9.6939713124
1520622055746789201,0.0450642402,-0.0051335004,-0.0261231599,0.4510701913,0.8681472162,9.7128816755
1520622055751803201,0.0500910950,-0.0051344451,-0.0250503107,0.3921443734,0.8921346140,9.7262154200
1520622055756820201,0.0533619394,-0.0022193199,-0.0250341473,0.4161957276,0.9041241450,9.6992403145
1520622055761835201,0.0563785839,-0.0004654606,-0.0266496848,0.4186008630,0.9149162215,9.7178006836
1520622055766851201,0.0591455565,0.0021609968,-0.0277169946,0.4546778944,0.9352987989,9.7174296532
1520622055771867201,0.0644262662,0.0056640493,-0.0293233941,0.4378419465,0.9257069867,9.7733857885
1520622055776882201,0.0684516226,0.0088701260,-0.0290358619,0.4570830299,0.9340994712,9.7952710573
1520622055781897201,0.0712211003,0.0123663664,-0.0284732270,0.5027806029,0.9101131036,9.7530124696
1520622055786914201,0.0749890459,0.0123729423,-0.0303740491,0.5003754675,0.9101132909,9.7518737358
1520622055791930201,0.0744868443,0.0126641299,-0.0303708926,0.4811343841,0.9269027554,9.7776118129
1520622055796946201,0.0792619572,0.0112010652,-0.0274148709,0.5472756083,0.9161053403,9.7711678391
1520622055801960201,0.0800128153,0.0079917602,-0.0258174497,0.5304396603,0.9017169665,9.7771564617
1520622055806977201,0.0790051972,0.0050724221,-0.0239439923,0.5244268218,0.9304968049,9.8166998173
1520622055811993201,0.0772450900,0.0030262137,-0.0217919197,0.5436679052,0.9448849914,9.8060392087
1520622055817009201,0.0769945321,0.0009747687,-0.0174782803,0.5364524989,0.9472838343,9.7944856609
1520622055822025201,0.0782511948,-0.0016595831,-0.0129013414,0.5364524989,0.9496821151,9.8479419441
1520622055827040201,0.0797600815,-0.0031261130,-0.0091276146,0.5124011447,0.9664719542,9.8458353865
1520622055832055201,0.0769980800,-0.0022566846,-0.0077630819,0.4991728998,1.0060446185,9.8215205309
1520622055837071201,0.0757477880,0.0018200212,-0.0069179874,0.5015780352,0.9844599035,9.8098967294
1520622055842088201,0.0744917368,0.0032815506,-0.0087983597,0.4691087070,0.9688736068,9.8090658234
1520622055847103201,0.0719772588,0.0044563021,-0.0125724426,0.4811343841,0.9640761085,9.8310341853
1520622055852118201,0.0727321276,0.0067949580,-0.0152615171,0.5268319572,0.9832587962,9.8387056914
1520622055857134201,0.0702206369,0.0085451944,-0.0163256949,0.5460730406,0.9388891020,9.8246159486
1520622055862150201,0.0669537129,0.0103002344,-0.0192822939,0.5208191186,0.9340945072,9.8178935684
1520622055867166201,0.0646903533,0.0097194929,-0.0203647231,0.5148062801,0.9077138862,9.8179778192
1520622055872182201,0.0614214927,0.0097247689,-0.0227935688,0.5304396603,0.9137083707,9.8689541407
1520622055877197201,0.0579023016,0.0106048284,-0.0254858243,0.5400602021,0.9280973065,9.8363064375
1520622055882212201,0.0561457188,0.0129374007,-0.0262764103,0.5184139832,0.9101118860,9.8574532598
1520622055887229201,0.0516237944,0.0149796908,-0.0278757230,0.5268319572,0.9173060729,9.8550400204
1520622055892245201,0.0483601675,0.0181872828,-0.0291979312,0.5496807438,0.9053128892,9.8792343408
1520622055897260201,0.0443411033,0.0199362000,-0.0299887628,0.5184139832,0.9209041498,9.8225784171
1520622055902275201,0.0408193561,0.0173123609,-0.0300022364,0.5376550666,0.9604742852,9.8711625941
1520622055907292201,0.0365502241,0.0196424918,-0.0302470633,0.5292370926,0.9436869749,9.8619637486
1520622055912307201,0.0315290893,0.0240149327,-0.0315571121,0.5160088478,0.9364931627,9.8458295049
1520622055917323201,0.0305272851,0.0278083652,-0.0336907122,0.5099960092,0.9364936310,9.8156722873
1520622055922339201,0.0285161967,0.0295660828,-0.0374612825,0.5340473635,0.9496823024,9.8944511124
1520622055927354201,0.0242436383,0.0313221858,-0.0409571063,0.5593012855,0.9292949484,9.8826037454
1520622055932369201,0.0197222902,0.0354114519,-0.0452463165,0.5460730406,0.9472830850,9.8513370742
1520622055937386201,0.0164555858,0.0371657634,-0.0479323695,0.5220216864,0.9364926944,9.8120688049
1520622055942402201,0.0144451599,0.0403847742,-0.0533150997,0.5304396603,0.9436868813,9.8236012930
1520622055947418201,0.0099237216,0.0435962445,-0.0562582496,0.5340473635,0.9472840216,9.8154276622
1520622055952432201,0.0054033810,0.0468040727,-0.0578486700,0.5580987177,0.9292950420,9.7942925099
1520622055957448201,0.0049015792,0.0488501234,-0.0602670880,0.5136037124,0.9017182777,9.8644811291
1520622055962464201,-0.0006241332,0.0517654448,-0.0615873187,0.5641115563,0.9412859780,9.8465187692
1520622055967481201,-0.0033882870,0.0523493161,-0.0623893763,0.5400602021,0.9628723788,9.8444075343
1520622055972496201,-0.0048974874,0.0514753003,-0.0626637911,0.5713269626,0.9640690840,9.8115620028
1520622055977512201,-0.0091679444,0.0508828447,-0.0596842981,0.6086065617,0.9496764955,9.7984295946
1520622055982527201,-0.0124322418,0.0497021865,-0.0545467511,0.5917706137,0.9712623344,9.8566796150
1520622055987544201,-0.0139454920,0.0450365296,-0.0534973365,0.5941757491,0.9520759003,9.8369184671
1520622055992559201,-0.0154557548,0.0409463574,-0.0497380168,0.5737320980,0.9484800712,9.8743095676
1520622055997575201,-0.0157101782,0.0383223414,-0.0492164661,0.5725295303,0.9664672712,9.8557094293
1520622056002589201,-0.0177243129,0.0339435015,-0.0465406196,0.5328447958,0.9328944302,9.8026698158
1520622056007607201,-0.0209913349,0.0318937887,-0.0433035630,0.4823369518,0.9197078192,9.8403628974
1520622056012622201,-0.0230057282,0.0292719972,-0.0438609288,0.4811343841,0.9293010363,9.8636081268
1520622056017638201,-0.0250184045,0.0284006981,-0.0452165938,0.4618933007,0.9736707305,9.8463199829
1520622056022654201,-0.0280294153,0.0316040180,-0.0449159932,0.3921443734,0.9652821798,9.8400341978
1520622056027669201,-0.0290295102,0.0342209859,-0.0430002973,0.3668904514,0.9772755509,9.8135389997
1520622056032684201,-0.0325431618,0.0377169503,-0.0432376321,0.3668904514,1.0144489040,9.7937463029
1520622056037700201,-0.0342990859,0.0400473374,-0.0432165803,0.4186008630,1.0060508937,9.8350883532
1520622056042717201,-0.0325379711,0.0412121078,-0.0426698632,0.4270188370,1.0012536764,9.8326868073
1520622056047731201,-0.0350484151,0.0403245863,-0.0380725850,0.4173982953,1.0180423916,9.8420612286
1520622056052747201,-0.0358026252,0.0379837451,-0.0345718729,0.4534753267,1.0288318456,9.8312402573
1520622056057764201,-0.0360550296,0.0350603318,-0.0310765404,0.4739189778,1.0216354108,9.8171025599
1520622056062780201,-0.0388184425,0.0335928566,-0.0275654252,0.4414496496,1.0228370801,9.7697695250
1520622056067796201,-0.0395717745,0.0312491016,-0.0229825295,0.3885366702,0.9964601118,9.7935531520
1520622056072811201,-0.0398225088,0.0289055436,-0.0184005672,0.4077777536,1.0084500175,9.7956784656
1520622056077827201,-0.0413325952,0.0251074844,-0.0149095703,0.4041700505,1.0396279495,9.7515217077
1520622056082841201,-0.0428431208,0.0213108821,-0.0119596653,0.3897392379,1.0144471245,9.7400652849
1520622056087857201,-0.0428462061,0.0169306446,-0.0084759149,0.3765109931,1.0108507335,9.7738997233
1520622056092873201,-0.0433462164,0.0157510694,-0.0033435018,0.3644853160,1.0180465126,9.7774961896
1520622056097890201,-0.0448528724,0.0139905166,0.0009746944,0.3680930191,1.0000591253,9.7449385838
1520622056102904201,-0.0453537608,0.0128138551,0.0050249239,0.3981572119,1.0096499072,9.7086101401
1520622056107921201,-0.0463587405,0.0113492543,0.0077211344,0.4089803213,1.0192421876,9.7317383190
1520622056112937201,-0.0473672839,0.0072621928,0.0103973370,0.3825238317,0.9784734737,9.7122791406
1520622056117953201,-0.0493733268,0.0075396780,0.0152731200,0.3825238317,0.9868674567,9.7250545387
1520622056122967201,-0.0496285892,0.0031622557,0.0176751535,0.4005623473,0.9772729284,9.7121047341
1520622056127984201,-0.0471163536,0.0008241513,0.0206287065,0.3813212639,0.9592873206,9.7227688506
1520622056132999201,-0.0471110376,0.0019773061,0.0252368790,0.3981572119,0.9580868690,9.7040118459
1520622056138015201,-0.0466093651,0.0008097796,0.0260386909,0.3753084254,0.9640843506,9.6484454855
1520622056143031201,-0.0451021837,0.0019831927,0.0233393240,0.3392313940,0.9508966158,9.6534580757
1520622056148048201,-0.0448512809,0.0016919067,0.0233366342,0.3452442326,0.9257141986,9.6487755308
1520622056153062201,-0.0440948282,0.0051961007,0.0206564521,0.3464468003,0.9113244198,9.6522642896
1520622056158078201,-0.0428372756,0.0069492707,0.0190441816,0.3440416648,0.9377056965,9.6441269666
1520622056163095201,-0.0408260460,0.0087034645,0.0171599650,0.3656878837,0.9293100276,9.6346273093
1520622056168110201,-0.0390647548,0.0101603479,0.0174383593,0.3945495088,0.9137189543,9.6297130136
1520622056173125201,-0.0373003430,0.0127776704,0.0196194672,0.4065751859,0.8945317709,9.6389118241
1520622056178141201,-0.0378028074,0.0133624278,0.0188132091,0.4186008630,0.8957299747,9.5969564218
1520622056183156201,-0.0337809715,0.0136532024,0.0196196023,0.4642984361,0.8657479051,9.5953787192
1520622056188173201,-0.0302638896,0.0121947444,0.0206841363,0.4402470819,0.8573557953,9.6362960441
1520622056193188201,-0.0257383583,0.0124820737,0.0228423256,0.4318291079,0.8441659063,9.6166343950
1520622056198205201,-0.0252361174,0.0104345661,0.0258018354,0.4907549258,0.8681441254,9.6067403088
1520622056203219201,-0.0257389856,0.0078009820,0.0298409495,0.4787292487,0.8549545173,9.5964109265
1520622056208237201,-0.0212170612,0.0057586919,0.0314402623,0.5063883061,0.9005196992,9.5716922523
1520622056213252201,-0.0179462247,0.0057468601,0.0363040210,0.4979703321,0.8825332485,9.5473867047
1520622056218268201,-0.0164379103,0.0036968327,0.0403438475,0.5051857384,0.8777361249,9.5694018869
1520622056223284201,-0.0109067015,0.0036902575,0.0435801303,0.4835395195,0.8765386703,9.5882080505
1520622056228297201,-0.0096493724,0.0039806775,0.0441211116,0.4354368110,0.8645510125,9.5305807484
1520622056233313201,-0.0078898454,0.0025164313,0.0470827339,0.4787292487,0.8621493599,9.5638638798
1520622056238330201,-0.0046214670,0.0028054536,0.0484316191,0.4871472227,0.8873306531,9.5463252289
1520622056243345201,-0.0036124884,0.0054275797,0.0487203059,0.4787292487,0.9209072406,9.5161586800
1520622056248361201,0.0001584014,0.0063024817,0.0489905202,0.4775266810,0.9233056151,9.5103573266
1520622056253376201,0.0039274448,0.0063054154,0.0484424275,0.4835395195,0.9388939723,9.5288779032
1520622056258393201,0.0087034398,0.0063029155,0.0500568352,0.5099960092,0.9233030863,9.5483920406
1520622056263409201,0.0102118993,0.0092282779,0.0460180773,0.4907549258,0.9293002870,9.5230063078
1520622056268424201,0.0137325488,0.0118557592,0.0446788214,0.4462599204,0.9077192248,9.5292711628
1520622056273440201,0.0182599305,0.0144785353,0.0452315200,0.4606907330,0.8765404498,9.5152153775
1520622056278457201,0.0227912757,0.0214786352,0.0433826517,0.4799318164,0.8981234789,9.5603306627
1520622056283471201,0.0263125407,0.0243967725,0.0423161649,0.4438547850,0.8657494973,9.5897669854
1520622056288488201,0.0288257956,0.0255676658,0.0406971146,0.4149931599,0.8405697962,9.5970453266
1520622056293504201,0.0298361385,0.0293560585,0.0407241478,0.4618933007,0.8297738797,9.6186800886
1520622056298520201,0.0341037846,0.0296651422,0.0347664269,0.4582855976,0.8417655649,9.6152170785
1520622056303533201,0.0376210508,0.0314257542,0.0307150428,0.4919574935,0.8789362955,9.5823130567
1520622056308550201,0.0373715123,0.0328833068,0.0304560791,0.5087934415,0.8705410013,9.5786709394
1520622056313566201,0.0398857316,0.0334656036,0.0309969498,0.5328447958,0.8717382686,9.6098135557
1520622056318582201,0.0428993848,0.0331804996,0.0290953048,0.5448704729,0.9101098255,9.5678219039
1520622056323597201,0.0464156356,0.0328955924,0.0271927263,0.5484781760,0.9316940721,9.6281972263
1520622056328614201,0.0486765332,0.0323137095,0.0271840796,0.5821500720,0.9316914497,9.6081130375
1520622056333628201,0.0479250987,0.0334760385,0.0282765557,0.6062014263,0.9424818403,9.5811391013
1520622056338645201,0.0504372088,0.0334799368,0.0271897049,0.5580987177,0.9472821484,9.5862512020
1520622056343661201,0.0516932207,0.0337747273,0.0261074108,0.5292370926,0.9041153410,9.6202763943
1520622056348676201,0.0514471557,0.0369769449,0.0272145150,0.5196165509,0.9089126519,9.6401218046
1520622056353692201,0.0522037376,0.0396026147,0.0261509390,0.5376550666,0.8933224215,9.6550693016
1520622056358708201,0.0529565835,0.0407771894,0.0229118805,0.5328447958,0.9125090430,9.5981523586
1520622056363724201,0.0544674148,0.0439873805,0.0213102587,0.5412627698,0.9041144044,9.6480507986
1520622056368740201,0.0549708553,0.0472044621,0.0170050448,0.5400602021,0.9065127789,9.7015187869
1520622056373755201,0.0569822574,0.0477872904,0.0172763031,0.5460730406,0.9340925403,9.7049197987
1520622056378770201,0.0569835786,0.0492463983,0.0164757809,0.5448704729,0.9484823191,9.6874853123
1520622056383785201,0.0559771994,0.0498353294,0.0140471809,0.5376550666,0.9808596724,9.6793889628
1520622056388802201,0.0567276184,0.0466274813,0.0151035103,0.5605038532,1.0084381226,9.7093554148
1520622056393818201,0.0572265191,0.0434202631,0.0158897606,0.5953783168,1.0048379852,9.6881008850
1520622056398833201,0.0537069242,0.0410819811,0.0180428773,0.5845552074,1.0252242154,9.6939970715
1520622056403849201,0.0529562738,0.0399001221,0.0239873948,0.5977834523,1.0719896616,9.6403640897
1520622056408865201,0.0529554779,0.0378538745,0.0264067463,0.5761372334,1.0611990837,9.6591796081
1520622056413880201,0.0527040889,0.0369759803,0.0277532732,0.5280345249,1.0408174429,9.7061534473
1520622056418897201,0.0517020573,0.0378431842,0.0301967224,0.5051857384,1.0252303969,9.7470660832
1520622056423912201,0.0501943075,0.0375497521,0.0307383915,0.4919574935,1.0192357251,9.7042013592
1520622056428928201,0.0484360939,0.0375461492,0.0318238421,0.5220216864,1.0168351027,9.6748574726
1520622056433943201,0.0476819778,0.0375465822,0.0315546964,0.5376550666,1.0216304468,9.6444848867
1520622056438958201,0.0461738751,0.0366689242,0.0326330110,0.5099960092,1.0372214265,9.6435767576
1520622056443976201,0.0456725085,0.0372500395,0.0331794825,0.5039831707,1.0276287714,9.6448067816
1520622056448991201,0.0436615886,0.0363729130,0.0339881847,0.5063883061,1.0084423373,9.6169106260
1520622056454007201,0.0409039426,0.0404475712,0.0353771713,0.5039831707,1.0048451034,9.5751003618
1520622056459022201,0.0399032754,0.0424810416,0.0375589670,0.5340473635,0.9808599534,9.5806418419
1520622056464038201,0.0338698179,0.0416081672,0.0362107696,0.4763241133,0.9904575725,9.5707350343
1520622056469054201,0.0321056257,0.0389901163,0.0343002076,0.4835395195,0.9844613084,9.6066971132
1520622056474070201,0.0310987602,0.0384098672,0.0332154447,0.4703112747,0.9604795302,9.6056871117
1520622056479085201,0.0253210905,0.0413272754,0.0310840431,0.4703112747,0.9616786706,9.5766323435
1520622056484100201,0.0215505574,0.0425000779,0.0278533855,0.4570830299,0.9940564923,9.5895131105
1520622056489117201,0.0207975861,0.0436675059,0.0270520403,0.4570830299,1.0036496157,9.5720715964
1520622056494132201,0.0170287192,0.0439566852,0.0273318102,0.4955651967,1.0132397420,9.5379855052
1520622056499148201,0.0117527649,0.0454137255,0.0265410891,0.5508833115,1.0012440294,9.5351344781
1520622056504165201,0.0077347946,0.0456955220,0.0295267846,0.5160088478,0.9916536221,9.5308347037
1520622056509180201,0.0044712461,0.0453904742,0.0341299092,0.5532884469,0.9904515783,9.5107165690
1520622056514196201,0.0027147848,0.0439175654,0.0398035246,0.5472756083,0.9832572040,9.5235656938
1520622056519212201,0.0002035058,0.0427401162,0.0438574879,0.5196165509,0.9832593582,9.5412670695
1520622056524227201,-0.0033132782,0.0406852060,0.0489888325,0.5184139832,0.9688697668,9.5505899582
1520622056529243201,-0.0070759078,0.0418317849,0.0554978272,0.5340473635,0.9724659705,9.5283535493
1520622056534257201,-0.0095871398,0.0418249729,0.0576668616,0.5184139832,0.9688697668,9.5192120715
1520622056539273201,-0.0118416196,0.0450198470,0.0612126127,0.4907549258,0.9700710614,9.4869400877
1520622056544291201,-0.0140998356,0.0467636259,0.0625828812,0.4679061393,0.9844625260,9.5092291868
1520622056549305201,-0.0145945650,0.0499570039,0.0669370029,0.4943626290,1.0228329590,9.4752320821
1520622056554321201,-0.0150897335,0.0531518388,0.0707500328,0.5292370926,1.0384190684,9.4423374033
1520622056559337201,-0.0170976190,0.0540208341,0.0723837112,0.5039831707,1.0228322097,9.4077340923
1520622056564353201,-0.0201088493,0.0572248824,0.0724137659,0.5124011447,1.0324246775,9.4401828329
1520622056569369201,-0.0185919532,0.0624638388,0.0748858941,0.4703112747,1.0312288152,9.4557015506
1520622056574385201,-0.0188414486,0.0636285500,0.0751657991,0.4510701913,1.0204380499,9.4477643479
1520622056579400201,-0.0188406998,0.0645041604,0.0746313765,0.5424653375,1.0204309318,9.4515233394
1520622056584414201,-0.0175813006,0.0671292988,0.0738374130,0.5172114155,0.9952509497,9.4645772852
1520622056589431201,-0.0163202745,0.0706271338,0.0735912105,0.5256293895,1.0192331026,9.4237969246
1520622056594447201,-0.0163181614,0.0726690108,0.0727951344,0.4907549258,1.0096426953,9.3927678392
1520622056599476201,-0.0112957053,0.0697556778,0.0733046609,0.4919574935,1.0012486187,9.4090343349
1520622056604479201,-0.0092860204,0.0685880136,0.0743742183,0.5508833115,0.9952483273,9.4340338008
1520622056609494201,-0.0077740953,0.0703310840,0.0765491237,0.5316422281,1.0096395109,9.4330449057
1520622056614510201,-0.0050079617,0.0712041353,0.0773622967,0.4979703321,1.0120404142,9.4426674602
1520622056619526201,-0.0017410338,0.0709125739,0.0778950980,0.5003754675,1.0384213162,9.4205375895
1520622056624542201,0.0017729276,0.0682936768,0.0770569184,0.4847420873,1.0492147976,9.4276520949
1520622056629557201,0.0073047518,0.0685777577,0.0805659702,0.5027806029,1.0420185502,9.4181863835
1520622056634572201,0.0100707992,0.0700364918,0.0803014058,0.4570830299,1.0696023390,9.4197664248
1520622056639589201,0.0123354368,0.0723691826,0.0800444441,0.4498676236,1.0612089180,9.4268177042
1520622056644604201,0.0163558692,0.0732500104,0.0781498245,0.4919574935,1.0564090782,9.4403584320
1520622056649619201,0.0193738780,0.0761701362,0.0762726334,0.4510701913,1.0624079648,9.4558584287
1520622056654636201,0.0221391805,0.0782167383,0.0741186939,0.4294239725,1.0636087911,9.4549058064
1520622056659651201,0.0266613323,0.0791006769,0.0711409572,0.4306265402,1.0708035399,9.5118321391
1520622056664667201,0.0284210867,0.0805626593,0.0695255302,0.4270188370,1.0492192933,9.4839968474
1520622056669683201,0.0342004344,0.0811520634,0.0678959664,0.4113854568,1.0456230896,9.5155304079
1520622056674699201,0.0372173847,0.0823195114,0.0676287122,0.4474624882,1.0552134032,9.5023863180
1520622056679714201,0.0394762122,0.0794029101,0.0689550103,0.4522727590,1.0552130286,9.5488252560
1520622056684729201,0.0422421694,0.0799838484,0.0700365061,0.4306265402,1.0803966633,9.5536599667
1520622056689746201,0.0465144691,0.0799847937,0.0702991177,0.4739189778,1.1043761000,9.5381073265
1520622056694762201,0.0505343643,0.0770623257,0.0740570618,0.4871472227,1.1055742102,9.5414638334
1520622056699777201,0.0540528498,0.0750138144,0.0778226086,0.5051857384,1.1031745245,9.5261827248
1520622056704794201,0.0570660991,0.0715103688,0.0807663358,0.4630958684,1.0983812409,9.5765692692
1520622056709810201,0.0610870999,0.0715112156,0.0810294141,0.4210059985,1.1007827998,9.5885980470
1520622056714825201,0.0638468080,0.0668443187,0.0831530779,0.4378419465,1.0971840673,9.5849512524
1520622056719841201,0.0666097308,0.0656791352,0.0834095975,0.4113854568,1.1031818299,9.6003107883
1520622056724857201,0.0688723455,0.0668477447,0.0826026517,0.3885366702,1.1079801712,9.6505006971
1520622056729873201,0.0708817207,0.0648030132,0.0847477235,0.3933469411,1.1163737795,9.6167435168
1520622056734887201,0.0731386195,0.0630636049,0.0817541796,0.3608776128,1.1283677125,9.6681821939
1520622056739904201,0.0779093886,0.0627857459,0.0774143544,0.3452442326,1.1307672110,9.6764670286
1520622056744919201,0.0799161293,0.0607497556,0.0763128755,0.3584724774,1.1655412530,9.6774665061
1520622056749934201,0.0804156495,0.0592966720,0.0749480971,0.3284082846,1.1667427349,9.7184330016
1520622056754951201,0.0821735142,0.0601795275,0.0719754944,0.3248005814,1.1307688032,9.7126924772
1520622056759967201,0.0821677982,0.0572715097,0.0697888964,0.3127749043,1.1643456716,9.6802367555
1520622056764982201,0.0849267222,0.0549488008,0.0670605188,0.3103697689,1.1727398419,9.6756034045
1520622056769999201,0.0886940484,0.0532012421,0.0673107254,0.3091672012,1.1835321994,9.7116310480
1520622056775014201,0.0924613786,0.0529171618,0.0651371343,0.2634696281,1.1739426351,9.7585709531
1520622056780029201,0.0924623038,0.0540848852,0.0643343889,0.2213797581,1.1667510706,9.7369069109
1520622056785044201,0.0927097802,0.0532195713,0.0610807022,0.2141643518,1.1739464751,9.7625372922
1520622056790061201,0.0937175317,0.0567238637,0.0584000533,0.2382157061,1.1487626531,9.8215970889
1520622056795077201,0.0959806756,0.0587688121,0.0567881391,0.2177720550,1.1751453346,9.8089867659
1520622056800091201,0.0977395048,0.0590630711,0.0559754574,0.2177720550,1.1955307218,9.7985075915
1520622056805107201,0.0977343141,0.0555679136,0.0554076886,0.1925181330,1.2243120588,9.8173196369
1520622056810124201,0.0982326033,0.0535335179,0.0534973723,0.2165694873,1.2267084665,9.8891361222
1520622056815139201,0.0972235385,0.0514970745,0.0521309481,0.2249874613,1.2099198449,9.8797734059
1520622056820155201,0.0969649830,0.0471305787,0.0504747931,0.2297977321,1.2243091554,9.8820368415
1520622056825171201,0.0972080960,0.0401330780,0.0520442478,0.2310002998,1.2363004659,9.8994456024
