#timestamp [ns],w_RS_S_x [rad s^-1],w_RS_S_y [rad s^-1],w_RS_S_z [rad s^-1],a_RS_S_x [m s^-2],a_RS_S_y [m s^-2],a_RS_S_z [m s^-2]
1520437769051864387,0.0274914464,0.0237766053,-0.0518428098,-0.1369854203,0.0144050344,9.7391944649
1520437769056880387,0.0264901284,0.0287392180,-0.0553202471,-0.0612236544,0.0275896785,9.7582006308
1520437769061895387,0.0259865232,0.0296204590,-0.0580181033,-0.0419825710,0.0455752863,9.7486986582
1520437769066910387,0.0267409960,0.0316677303,-0.0607094009,0.0037150021,0.0611605527,9.7796165514
1520437769071927387,0.0207194997,0.0374872305,-0.0584893706,0.0782742003,0.1211117670,9.8067238258
1520437769076942387,0.0156995488,0.0412703465,-0.0573689525,0.1239717734,0.2158403013,9.8631317096
1520437769081958387,0.0119411454,0.0465006794,-0.0524521100,0.1107435285,0.2781966336,9.8492539322
1520437769086975387,0.0044151963,0.0534792995,-0.0480560199,0.1167563671,0.3057763951,9.8584656637
1520437769091991387,-0.0018561993,0.0572451693,-0.0407107125,0.0915024451,0.3825233490,9.8656094959
1520437769097007387,-0.0091455864,0.0540283432,-0.0374750807,0.0001072989,0.3597467991,9.8467648504
1520437769102022387,-0.0141684463,0.0537233346,-0.0331392350,-0.0756544670,0.3285750487,9.8486948158
1520437769107039387,-0.0201998887,0.0510875845,-0.0290898530,-0.1261623109,0.2614271187,9.8422790474
1520437769112055387,-0.0214650038,0.0455544283,-0.0304824875,-0.1598342069,0.1858838945,9.7741139641
1520437769117070387,-0.0217248727,0.0426557817,-0.0361857154,-0.2392036759,0.1103442294,9.7784465980
1520437769122085387,-0.0192183452,0.0403366165,-0.0402663558,-0.3101551710,0.0372021895,9.7571277909
1520437769127101387,-0.0192301221,0.0368633119,-0.0489505015,-0.4448427549,-0.0443288694,9.7085460823
1520437769132116387,-0.0154863536,0.0267056656,-0.0636447887,-0.5181993853,-0.1546440751,9.6954219425
1520437769137134387,-0.0097270470,0.0203368057,-0.0783139096,-0.5001608697,-0.2613689777,9.6709454148
1520437769142149387,-0.0009476224,0.0174664701,-0.0932325000,-0.5049711405,-0.3117325008,9.6024748540
1520437769147165387,0.0075805975,0.0169373103,-0.1119204816,-0.4821223540,-0.3225265442,9.5743715270
1520437769152181387,0.0198824829,0.0207862227,-0.1327464849,-0.3522450410,-0.2481899532,9.5556027226
1520437769157197387,0.0331928568,0.0246246024,-0.1495161667,-0.1273648786,-0.2086358336,9.4580794846
1520437769162212387,0.0470122852,0.0293198503,-0.1597870111,0.1275794765,-0.0839450855,9.4101527871
1520437769167227387,0.0618448634,0.0366233841,-0.1646287968,0.3127749043,0.0635347630,9.4151792434
1520437769172244387,0.0744240947,0.0438983514,-0.1591856379,0.4691087070,0.2361988081,9.4634613913
1520437769177260387,0.0857478786,0.0485350687,-0.1480786894,0.5352499312,0.3956793331,9.4707970987
1520437769182275387,0.0943027532,0.0487955644,-0.1353766778,0.5761372334,0.5227850336,9.5678952690
1520437769187291387,0.0983308970,0.0435041418,-0.1175681317,0.5641115563,0.6319077487,9.6341481151
1520437769192306387,0.1011016644,0.0367516621,-0.0984156380,0.5136037124,0.6103271548,9.7404158754
1520437769197323387,0.1031117178,0.0256310328,-0.0803772741,0.4246137016,0.5635676091,9.7959484197
1520437769202338387,0.1026080341,0.0136338085,-0.0617998203,0.3392313940,0.4952232549,9.8317104496
1520437769207354387,0.1003465837,0.0045584815,-0.0464434194,0.1756821850,0.3969064779,9.8915054208
1520437769212370387,0.0990887135,-0.0009987129,-0.0389080393,0.0289689240,0.2997875301,9.8779202828
1520437769217385387,0.0953193604,-0.0018787139,-0.0372844323,-0.0828698733,0.1882761811,9.9011983367
1520437769222402387,0.0895365863,-0.0030421459,-0.0389058654,-0.1862906966,0.0587770701,9.9244119954
1520437769227417387,0.0857652181,-0.0021592711,-0.0426798378,-0.3173705773,0.0312070493,9.9524440523
1520437769232433387,0.0787154980,-0.0038739134,-0.0562074029,-0.4412350517,-0.0035583760,9.9780886069
1520437769237449387,0.0696632124,-0.0021029272,-0.0659169146,-0.4063605880,-0.0131542155,9.9824070908
1520437769242465387,0.0593550090,0.0017145428,-0.0783139900,-0.3546501764,-0.0023659791,10.0179197119
1520437769247481387,0.0490490010,0.0055247285,-0.0880056065,-0.3799040984,0.0204196558,10.0564940512
1520437769252497387,0.0364802411,0.0061178719,-0.0936592880,-0.3077500356,0.1055530063,10.0406008533
1520437769257513387,0.0229056273,0.0067128067,-0.1001227403,-0.2728755719,0.1786978560,10.0227579176
1520437769262528387,0.0078200567,0.0064395530,-0.1090249745,-0.1754675872,0.2494395545,10.0043086577
1520437769267545387,-0.0085187189,0.0046914021,-0.1114428891,-0.0504005450,0.3357679244,9.9530349494
1520437769272560387,-0.0218362827,0.0049746548,-0.1103337461,0.0794767680,0.3993122515,10.0133024579
1520437769277576387,-0.0346466424,0.0037793288,-0.1011202751,0.1299846119,0.5012352538,9.9731985573
1520437769282591387,-0.0464538728,0.0017131568,-0.0929975238,0.2009361070,0.5156194130,9.9713317829
1520437769287607387,-0.0577601444,-0.0056159506,-0.0781520741,0.2081515133,0.5491947828,9.9735530990
1520437769292622387,-0.0647927520,-0.0117778462,-0.0633056664,0.1792898882,0.5444004690,9.9738386977
1520437769297639387,-0.0750869244,-0.0153243883,-0.0462688163,0.1239717734,0.4760537732,9.9756059266
1520437769302654387,-0.0763359188,-0.0185694457,-0.0316814583,0.1263769088,0.4232914073,9.9721475355
1520437769307670387,-0.0770825744,-0.0200572578,-0.0203282459,0.0554254137,0.4161020907,9.9740072939
1520437769312685387,-0.0745651561,-0.0218271618,-0.0119593289,-0.0215389199,0.3489562212,9.9225254225
1520437769317702387,-0.0715477746,-0.0235881276,-0.0068378960,-0.0936929827,0.2338443601,9.9477450055
1520437769322718387,-0.0692878924,-0.0262155297,-0.0046977371,-0.1598342069,0.1535071031,9.9414942656
1520437769327734387,-0.0632666627,-0.0332049386,-0.0053033843,-0.2428113791,0.0719720168,9.8958956714
1520437769332749387,-0.0557411958,-0.0398892604,-0.0107794349,-0.3005346293,0.0156169126,9.8558374347
1520437769337766387,-0.0492239978,-0.0465637781,-0.0200412611,-0.3245859836,-0.0419399545,9.8491548004
1520437769342781387,-0.0414477966,-0.0509045419,-0.0300992740,-0.3354090930,-0.0551296562,9.8016251065
1520437769347797387,-0.0316646351,-0.0572820245,-0.0409882199,-0.2524319208,-0.1126948591,9.7543878277
1520437769352813387,-0.0238863247,-0.0610443899,-0.0494185112,-0.2680653011,-0.0995030969,9.7766078658
1520437769357829387,-0.0181162056,-0.0633513487,-0.0575634074,-0.2067343477,-0.0503431162,9.7457472222
1520437769362843387,-0.0125938216,-0.0630359452,-0.0656878291,-0.0864775764,0.0263925049,9.7317182954
1520437769367861387,-0.0078261731,-0.0644742433,-0.0719303679,0.0518177106,0.1103215637,9.7605061030
1520437769372876387,-0.0065678325,-0.0636017827,-0.0711143946,0.1468205599,0.2074445388,9.7362438079
1520437769377892387,-0.0060651094,-0.0659435885,-0.0670749242,0.2526465187,0.3069649519,9.7571974429
1520437769382907387,-0.0053136005,-0.0720820358,-0.0598182700,0.2382157061,0.4304775394,9.8118382275
1520437769387924387,-0.0065757401,-0.0814301428,-0.0512296065,0.2466336801,0.5048235901,9.8616559831
1520437769392938387,-0.0090873876,-0.0890457319,-0.0369438070,0.2646721958,0.5419955383,9.9114163478
1520437769397955387,-0.0075785637,-0.0975368130,-0.0215899607,0.2490388155,0.5575855814,9.9440933428
1520437769402971387,-0.0090932410,-0.1103932876,-0.0086987731,0.1684667787,0.5671849800,9.9297603555
1520437769407987387,-0.0093467196,-0.1209232928,0.0061016868,0.0963127160,0.5252206848,9.9479357451
1520437769413002387,-0.0086019029,-0.1337715970,0.0162832149,0.0963127160,0.4604671019,9.9445124575
1520437769418018387,-0.0073478865,-0.1407876432,0.0248849959,-0.0131209459,0.3873280591,9.8980010452
1520437769423034387,-0.0040854122,-0.1480891872,0.0315869988,-0.1165417692,0.3117902672,9.8804870452
1520437769428050387,-0.0023342396,-0.1539161885,0.0315392700,-0.1778727226,0.2566345844,9.8753270729
1520437769433065387,-0.0008387136,-0.1600215611,0.0266199588,-0.1694547486,0.1690966779,9.8520876202
1520437769438081387,-0.0001027098,-0.1681574512,0.0181693894,-0.1309725818,0.0851538511,9.8785242231
1520437769443097387,0.0006390099,-0.1733853234,0.0119054181,-0.1225546078,0.0239970339,9.9249876822
1520437769448114387,-0.0028854072,-0.1727806229,0.0032589297,-0.1357828526,-0.0539460634,9.9577324755
1520437769453129387,-0.0059100845,-0.1736297344,-0.0064817911,-0.1201494724,-0.0371593150,9.9622125149
1520437769458145387,-0.0046587221,-0.1715633269,-0.0162082154,-0.0876801441,-0.0515515289,9.9851533895
1520437769463159387,-0.0076761467,-0.1695095197,-0.0218685169,-0.0059055396,-0.1151123402,10.0169594514
1520437769468177387,-0.0061642569,-0.1645466508,-0.0250800755,0.0494125752,-0.0683501721,10.0175375585
1520437769473191387,-0.0028957804,-0.1604528757,-0.0299248459,0.0890973097,0.0263788306,10.0147346259
1520437769478207387,0.0001250001,-0.1554930583,-0.0317864754,0.1239717734,0.0947271186,10.0224635346
1520437769483223387,0.0051528663,-0.1549119623,-0.0304386342,0.2514439509,0.1774578798,10.0025478110
1520437769488239387,0.0114331729,-0.1595854935,-0.0253454996,0.3031543626,0.2889739118,9.9589364187
1520437769493256387,0.0172169037,-0.1619376150,-0.0167165503,0.3404339617,0.3789065401,9.9584858615
1520437769498272387,0.0192319360,-0.1666354014,-0.0032285586,0.3596750451,0.4760354159,9.9628524399
1520437769503288387,0.0214947506,-0.1727849129,0.0083540296,0.3608776128,0.5695682752,9.9325337836
1520437769508303387,0.0245143117,-0.1804070772,0.0258761119,0.3897392379,0.5803582912,9.9868631040
1520437769513318387,0.0240130548,-0.1880218786,0.0401581777,0.4546778944,0.5647644081,10.0013541038
1520437769518335387,0.0169794278,-0.1976927718,0.0595771886,0.4173982953,0.5923475413,10.0191222251
1520437769523350387,0.0114544329,-0.2056096681,0.0771129164,0.3765109931,0.5755627598,10.0102394161
1520437769528366387,-0.0021208711,-0.2167203761,0.0892282076,0.3813212639,0.5503804362,10.0520543344
1520437769533381387,-0.0182106962,-0.2263634912,0.0970305470,0.3608776128,0.4976198498,10.0639262108
1520437769538398387,-0.0335416537,-0.2325104250,0.1051287092,0.3933469411,0.4352620190,10.0276445173
1520437769543413387,-0.0481125557,-0.2342870239,0.1135293634,0.3608776128,0.3261427693,9.9990133649
1520437769548429387,-0.0654452750,-0.2319751245,0.1181786323,0.3404339617,0.2601916382,9.9434937547
1520437769553445387,-0.0795029668,-0.2223715045,0.1207130436,0.2851158469,0.2218234530,9.9370967424
1520437769558461387,-0.0915622723,-0.2191666299,0.1191366249,0.1792898882,0.2014463079,9.9579031134
1520437769563476387,-0.1041183614,-0.2092491817,0.1135540822,0.0818819034,0.1402977328,9.9682080109
1520437769568493387,-0.1161781765,-0.1996032535,0.1006636437,0.0025124344,0.1235159484,9.9724833472
1520437769573508387,-0.1302453909,-0.1879191497,0.0880630465,-0.0467928419,0.0899438566,9.9474288290
1520437769578524387,-0.1410524911,-0.1794309830,0.0724559231,0.0193483823,0.0383756671,9.9084845820
1520437769583538387,-0.1516060108,-0.1715356849,0.0606315294,0.1299846119,0.0263756461,9.8946358267
1520437769588556387,-0.1631674544,-0.1659733137,0.0493323096,0.2358105707,0.0251682636,9.8494454808
1520437769593571387,-0.1694469221,-0.1595463763,0.0423586923,0.2983440917,0.0179685508,9.7942230681
1520437769598588387,-0.1752251564,-0.1542855085,0.0356457951,0.3380288263,-0.0048182080,9.7311032451
1520437769603602387,-0.1797420588,-0.1461132169,0.0300349787,0.3849289671,0.0215592285,9.6760002566
1520437769608619387,-0.1774620178,-0.1306602097,0.0269020509,0.3813212639,0.0551354414,9.5911661216
1520437769613634387,-0.1761807466,-0.1096676481,0.0224604992,0.4330316756,0.0803133629,9.5708818009
1520437769618651387,-0.1698635175,-0.0834376655,0.0215667253,0.4991728998,0.0635202457,9.5388765068
1520437769623665387,-0.1617860126,-0.0577963187,0.0231001511,0.5412627698,0.0635169676,9.4745489123
1520437769628683387,-0.1547101002,-0.0312892249,0.0276181179,0.5689218272,0.0910950431,9.4103348837
1520437769633698387,-0.1471333033,-0.0050689481,0.0305096529,0.5665166917,0.0970909326,9.4405681899
1520437769638714387,-0.1370465565,0.0179427129,0.0349953420,0.6001885877,0.1090797143,9.4599852022
1520437769643730387,-0.1292284500,0.0360006793,0.0391768933,0.6086065617,0.1210704629,9.4110815273
1520437769648746387,-0.1178846837,0.0584256929,0.0452790781,0.6182271034,0.1390568200,9.3830788919
1520437769653761387,-0.1100638957,0.0776455552,0.0508222512,0.5941757491,0.1726346250,9.4448738811
1520437769658777387,-0.0999795325,0.0959819520,0.0601421971,0.6206322388,0.2122041985,9.4352806300
1520437769663792387,-0.0899051938,0.1093757383,0.0653661621,0.6062014263,0.2481795351,9.4656017533
1520437769668809387,-0.0848635630,0.1178140185,0.0705616691,0.5857577751,0.2517785486,9.3705014270
1520437769673825387,-0.0783147117,0.1256693919,0.0760204756,0.6037962908,0.2601711267,9.3772905295
1520437769678840387,-0.0687512937,0.1300169492,0.0860462845,0.5725295303,0.2709658256,9.3252878590
1520437769683856387,-0.0599493307,0.1320477035,0.0906447910,0.5797449366,0.2793592467,9.3054529961
1520437769688872387,-0.0506534812,0.1276681951,0.0951934562,0.5532884469,0.2913527114,9.2998880941
1520437769693888387,-0.0415997333,0.1308682281,0.0984476588,0.5268319572,0.3261298442,9.2826795352
1520437769698904387,-0.0335568967,0.1311598495,0.0995171304,0.5376550666,0.3393195459,9.2535077281
1520437769703920387,-0.0214905932,0.1340784207,0.0995169585,0.5400602021,0.3381202182,9.2720797906
1520437769708935387,-0.0091688158,0.1384467286,0.1022328943,0.5737320980,0.3153339277,9.2299370841
1520437769713950387,0.0051626858,0.1398910524,0.1089810539,0.5532884469,0.2553784987,9.2371674008
1520437769718966387,0.0164770255,0.1430956137,0.1108783266,0.4919574935,0.2098159393,9.2831324078
1520437769723982387,0.0242679871,0.1413401606,0.1146381622,0.4318291079,0.2098206223,9.3139334034
1520437769728999387,0.0295449919,0.1387088410,0.1186665417,0.4294239725,0.1918337032,9.3883515667
1520437769734014387,0.0325588960,0.1337397316,0.1248457041,0.4282214047,0.1726475501,9.4244084437
1520437769739030387,0.0312980737,0.1243872540,0.1350576431,0.2935338209,0.1822511634,9.5140329959
1520437769744045387,0.0297843765,0.1167960970,0.1404135611,0.1937207007,0.1954494819,9.5463695396
1520437769749062387,0.0257504736,0.1030812381,0.1470801911,0.1973284039,0.1654706903,9.6033087117
1520437769754078387,0.0207097444,0.0870298102,0.1556247245,0.2033412424,0.1438856944,9.6416219850
1520437769759093387,0.0136555471,0.0695243142,0.1628091468,0.2045438101,0.1019156859,9.6660562298
1520437769764108387,0.0038400069,0.0528860613,0.1721697395,0.1648590756,0.0911265129,9.7175873547
1520437769769125387,-0.0054817291,0.0318867070,0.1779789559,0.1456179922,0.0695434838,9.7108228200
1520437769774142387,-0.0165622472,0.0117637308,0.1827159249,0.1275794765,0.0407655185,9.7331071951
1520437769779156387,-0.0233705048,-0.0066019802,0.1847528392,0.1011229868,0.0323735961,9.7333728917
1520437769784171387,-0.0296755493,-0.0246768382,0.1870615891,0.0951101483,0.0083912559,9.7590219708
1520437769789188387,-0.0317003710,-0.0354595817,0.1872536146,0.0722613617,0.0491638099,9.7510696017
1520437769794204387,-0.0319683865,-0.0471121476,0.1860829744,0.0963127160,-0.0000028207,9.6916141018
1520437769799220387,-0.0294682454,-0.0567275808,0.1862754912,0.0987178514,0.0143866771,9.6764687882
1520437769804235387,-0.0279750559,-0.0663375805,0.1843055078,0.1083383931,0.0407670171,9.6496201113
1520437769809252387,-0.0247280516,-0.0788563656,0.1806867511,0.0494125752,0.0467673086,9.6885385629
1520437769814266387,-0.0202198917,-0.0887558399,0.1784383980,0.0409946012,0.0419714025,9.7014087591
1520437769819283387,-0.0144539125,-0.0957322355,0.1729633914,0.0109304084,0.0611599908,9.6493861982
1520437769824299387,-0.0061722988,-0.0983259521,0.1634588754,-0.0335645970,0.0299858052,9.6231203771
1520437769829315387,0.0046285014,-0.0983049646,0.1572162507,0.0193483823,0.0299816841,9.6284160744
1520437769834330387,0.0146822266,-0.0924529398,0.1496667584,0.0674510909,0.0215839548,9.5930917389
1520437769839347387,0.0264925816,-0.0877628501,0.1410229231,0.0650459554,0.0071944570,9.5443191350
1520437769844363387,0.0395577999,-0.0854084434,0.1342527907,0.0277663563,0.0095956413,9.5772196838
1520437769849379387,0.0508621700,-0.0830488985,0.1253215583,0.0025124344,0.0215890124,9.5913995241
1520437769854394387,0.0603988273,-0.0862227066,0.1149986248,0.0301714918,-0.0011968098,9.6376382834
1520437769859411387,0.0709377789,-0.0905572884,0.1030416568,0.1420102891,-0.0491711371,9.6458936383
1520437769864424387,0.0824847798,-0.0949009460,0.0945999184,0.1841001590,-0.0683606620,9.6524755345
1520437769869441387,0.0867470158,-0.0980862913,0.0878038828,0.2418234092,-0.0899496853,9.7135283695
1520437769874458387,0.0925182757,-0.1006897336,0.0815505848,0.2791030083,-0.0911517292,9.6841130832
1520437769879473387,0.0997941139,-0.1067942986,0.0771616307,0.2754953052,-0.0875540269,9.6794961145
1520437769884488387,0.0982734384,-0.1131915087,0.0719751511,0.2839132792,-0.0755632783,9.6828889176
1520437769889504387,0.0965064353,-0.1160929314,0.0670863612,0.2959389563,-0.0947504617,9.6769798567
1520437769894520387,0.0942383752,-0.1175361716,0.0616685284,0.3043569303,-0.0767640110,9.6327189110
1520437769899536387,0.0912184494,-0.1148886688,0.0519544846,0.3284082846,-0.0791641650,9.5976228299
1520437769904553387,0.0846870282,-0.1069961660,0.0417458987,0.3211928783,-0.0695704797,9.6453316076
1520437769909568387,0.0851989643,-0.0959044178,0.0347952492,0.3921443734,-0.0479914780,9.5934856272
1520437769914583387,0.0839542746,-0.0821872560,0.0265151450,0.4246137016,-0.0407991643,9.5838654230
1520437769919600387,0.0837164502,-0.0678898449,0.0193198037,0.4390445142,-0.0443977095,9.5941877660
1520437769924616387,0.0837223113,-0.0600064372,0.0134278173,0.4498676236,-0.0276105865,9.5998767695
1520437769929631387,0.0824655623,-0.0567864026,0.0077731411,0.4967677644,-0.0324108009,9.6412621320
1520437769934646387,0.0847239587,-0.0567745901,0.0037107521,0.4667035716,-0.0012308084,9.5869035897
1520437769939662387,0.0852229496,-0.0591040125,0.0031509422,0.4811343841,0.0275474379,9.6157886638
1520437769944678387,0.0859792649,-0.0576482514,0.0037017492,0.4679061393,0.0371415915,9.6135837768
1520437769949695387,0.0892527948,-0.0521077517,0.0026557369,0.4655010038,0.0719168511,9.6275190035
1520437769954710387,0.0917718088,-0.0483216820,0.0037621533,0.5087934415,0.0683160581,9.5782910834
1520437769959726387,0.0953008950,-0.0433806069,0.0089337837,0.4955651967,0.0851050543,9.5528363013
1520437769964740387,0.1003464423,-0.0317356400,0.0136126529,0.4799318164,0.0827079910,9.5413693661
1520437769969756387,0.1064033831,-0.0174765597,0.0215562137,0.4570830299,0.0731166471,9.4986017906
1520437769974773387,0.1117080112,-0.0020522367,0.0295100670,0.4330316756,0.1486643670,9.5115458069
1520437769979790387,0.1142469487,0.0139610566,0.0347680415,0.3416365294,0.1870439787,9.6053694886
1520437769984805387,0.1182887080,0.0264790548,0.0397259927,0.3199903106,0.1810499625,9.6241803296
1520437769989820387,0.1188008049,0.0320090019,0.0422022109,0.3596750451,0.2194193653,9.6899988493
1520437769994837387,0.1147919377,0.0375291640,0.0476628350,0.3813212639,0.2038288539,9.7211812465
1520437769999852387,0.1095257845,0.0424660648,0.0531213466,0.3416365294,0.2074293659,9.7854819228
1520437770004868387,0.1034991367,0.0430340876,0.0577362743,0.3103697689,0.2458042946,9.8392074573
1520437770009884387,0.0947046892,0.0436126823,0.0580276017,0.3187877429,0.3045615198,9.8565003836
1520437770014899387,0.0861643435,0.0415477901,0.0661442856,0.3260031491,0.3201497833,9.8413070804
1520437770019915387,0.0710899656,0.0397739080,0.0734636897,0.2959389563,0.2997667376,9.9078617910
1520437770024930387,0.0542553512,0.0368323417,0.0813185603,0.2983440917,0.3417364651,9.9507967803
1520437770029947387,0.0394276108,0.0324397394,0.0872647604,0.2430259770,0.3501347564,9.9745699066
1520437770034962387,0.0256132005,0.0324110146,0.0959478988,0.2406208415,0.3021693268,9.9641807947
1520437770039978387,0.0082756395,0.0303485040,0.1019165508,0.2478362478,0.3033679053,9.9141372050
1520437770044994387,-0.0027721981,0.0311913736,0.1119539540,0.2526465187,0.3573288497,9.9349563557
1520437770050011387,-0.0133209585,0.0291191379,0.1225092848,0.2009361070,0.3309517877,9.9633768535
1520437770055026387,-0.0243838778,0.0221091939,0.1270757468,0.1804924559,0.3285550991,9.9194167079
1520437770060042387,-0.0279062877,0.0180240616,0.1286744331,0.1131486640,0.2997809739,9.9259109749
1520437770065057387,-0.0339432226,0.0139430437,0.1283839654,0.0927050128,0.2530160896,9.9029126860
1520437770070074387,-0.0357179764,0.0025790864,0.1280299862,0.1432128568,0.2014491177,9.9117685069
1520437770075089387,-0.0297027684,-0.0067319291,0.1238894577,0.1023255545,0.1510884044,9.9040805834
1520437770080105387,-0.0226828513,-0.0172117310,0.1210908994,0.1167563671,0.1079182252,9.8458750212
1520437770085120387,-0.0156662743,-0.0288512436,0.1161190816,0.0578305492,0.0671520401,9.7918675606
1520437770090137387,-0.0089029681,-0.0390208202,0.1062890198,0.0385894657,-0.0023966059,9.7990955270
1520437770095154387,0.0011264820,-0.0471377704,0.0921397179,0.0602356846,-0.0479656278,9.7838213994
1520437770100168387,0.0109059975,-0.0540885524,0.0777292292,0.1396051536,-0.1151236731,9.7726550531
1520437770105184387,0.0234538068,-0.0569537690,0.0614509084,0.1756821850,-0.1882740487,9.6805658587
1520437770110200387,0.0307251797,-0.0580676471,0.0433019061,0.2189746227,-0.2062645268,9.6801620168
1520437770115215387,0.0357423472,-0.0518897853,0.0222366765,0.2875209823,-0.2146638484,9.6957730293
1520437770120232387,0.0427715794,-0.0436678020,-0.0001694547,0.3560673420,-0.2446476976,9.6718921955
1520437770125247387,0.0483046230,-0.0308017393,-0.0160441147,0.4426522173,-0.2266673348,9.6826533309
1520437770130264387,0.0545931469,-0.0167698432,-0.0319112826,0.4498676236,-0.1715074373,9.6790428791
1520437770135278387,0.0603731808,-0.0059382747,-0.0496957922,0.4727164101,-0.1175478978,9.7345507725
1520437770140295387,0.0621322609,0.0060630840,-0.0696283090,0.4642984361,-0.0935644337,9.7694736398
1520437770145311387,0.0621359815,0.0180513702,-0.0849582786,0.4667035716,-0.0827723572,9.7903582968
1520437770150327387,0.0601305816,0.0288638610,-0.0967763101,0.4510701913,-0.0671823141,9.8114138523
1520437770155342387,0.0583755984,0.0382158855,-0.1072531942,0.4618933007,-0.0467977698,9.8310450752
1520437770160359387,0.0523484450,0.0466884405,-0.1163760839,0.4655010038,-0.0491963317,9.8135801394
1520437770165373387,0.0478342673,0.0557297867,-0.1200864097,0.4630958684,-0.0096245104,9.7845113625
1520437770170390387,0.0400538203,0.0650605090,-0.1235178992,0.4546778944,-0.0000307314,9.7996918146
1520437770175405387,0.0350431569,0.0773010607,-0.1250384706,0.4438547850,0.0239529200,9.8206923645
1520437770180421387,0.0300360101,0.0909934359,-0.1246541052,0.4234111339,0.0971020781,9.8336036042
1520437770185438387,0.0220050993,0.1006139875,-0.1275418131,0.3885366702,0.1714515005,9.8640862946
1520437770190453387,0.0147264463,0.1049717021,-0.1237072893,0.3945495088,0.1858407173,9.9221209350
1520437770195470387,0.0069462894,0.1078620992,-0.1160953049,0.3392313940,0.2673865744,9.9574441712
1520437770200484387,-0.0015902260,0.1095895765,-0.1095729963,0.2887235500,0.3201526868,9.9439386051
1520437770205500387,-0.0098731139,0.1118948224,-0.1011528870,0.2153669196,0.3345480851,9.9818271881
1520437770210516387,-0.0179083489,0.1136268672,-0.0962547872,0.1732770496,0.3177633973,10.0043339709
1520437770215531387,-0.0244348265,0.1147709063,-0.0891995668,0.1564411016,0.3189638489,10.0079831042
1520437770220548387,-0.0299605938,0.1135886335,-0.0837872733,0.1408077214,0.2853891347,10.0314108905
1520437770225564387,-0.0365007967,0.1051191684,-0.0776170524,0.1107435285,0.2410232805,10.0422060781
1520437770230579387,-0.0420356280,0.0969422102,-0.0717170211,0.0458048720,0.2614137253,10.0218996812
1520437770235595387,-0.0460612980,0.0913955877,-0.0685052414,0.0325766272,0.3177743555,9.9534069846
1520437770240611387,-0.0460725614,0.0829447080,-0.0682991650,0.0554254137,0.3069803121,9.9776001356
1520437770245627387,-0.0433216037,0.0736236714,-0.0691870754,0.0698562263,0.3297628563,9.9716267377
1520437770250642387,-0.0393112507,0.0654642946,-0.0684451516,0.1889104299,0.3093681967,9.9600285203
1520437770255658387,-0.0330415841,0.0555574968,-0.0677207669,0.2550516541,0.2889776582,9.8850274079
1520437770260674387,-0.0232478885,0.0476815710,-0.0631997122,0.2634696281,0.3237520749,9.9453430473
1520437770265689387,-0.0144712240,0.0307708742,-0.0582046145,0.2959389563,0.3585246183,10.0275053207
1520437770270706387,-0.0067059059,0.0124167011,-0.0583591373,0.2911286855,0.3597241334,10.0345238353
1520437770275722387,0.0053316648,-0.0071071638,-0.0563661195,0.3199903106,0.3885012557,10.0992949112
1520437770280737387,0.0178647921,-0.0324614361,-0.0533363134,0.4089803213,0.3944900270,10.1495572243
1520437770285754387,0.0273802203,-0.0598587668,-0.0495048304,0.4859446550,0.3956831732,10.1615905149
1520437770290770387,0.0373997869,-0.0857975211,-0.0462042573,0.5785423689,0.4088665060,10.1397577716
1520437770295786387,0.0496875940,-0.1085374439,-0.0401779718,0.6182271034,0.4352445046,10.0928600211
1520437770300801387,0.0607293783,-0.1234097482,-0.0343598752,0.5977834523,0.4484366415,9.9965881961
1520437770305817387,0.0727860767,-0.1327526370,-0.0257959480,0.6037962908,0.4460378923,9.8977497734
1520437770310834387,0.0840997459,-0.1339363260,-0.0174389201,0.5568961500,0.4448424046,9.9051803037
1520437770315847387,0.0913962486,-0.1298650138,-0.0133631435,0.5532884469,0.4280547197,9.8389895842
1520437770320865387,0.0936735883,-0.1228912951,-0.0057387049,0.5352499312,0.4244587033,9.8449793879
1520437770325880387,0.0952032807,-0.1106700366,0.0008449659,0.5063883061,0.3549108066,9.8987867528
1520437770330895387,0.0897014475,-0.0940771248,0.0061223217,0.4667035716,0.3657061612,9.9317025263
1520437770335912387,0.0809373048,-0.0742809915,0.0117007447,0.4390445142,0.3633100345,9.9807841274
1520437770340926387,0.0689112483,-0.0509902522,0.0175824581,0.4510701913,0.3573133958,10.0132129542
1520437770345943387,0.0503551193,-0.0244946577,0.0226891225,0.3753084254,0.3633149985,10.0081338063
1520437770350958387,0.0285332933,0.0028738105,0.0278085236,0.3199903106,0.3465313409,10.0946872623
1520437770355975387,0.0064529981,0.0252901001,0.0323495071,0.2634696281,0.3129598111,10.1266480282
1520437770360991387,-0.0204106782,0.0442210165,0.0320028552,0.2346080030,0.3045680760,10.1769093249
1520437770366006387,-0.0492868111,0.0622799054,0.0305710843,0.1865052944,0.2673984692,10.1983323679
1520437770371022387,-0.0781591217,0.0812042067,0.0323925334,0.1203640702,0.2350268291,10.2001698621
1520437770376038387,-0.1045261398,0.0957645521,0.0320116018,0.0566279814,0.2026550016,10.2229025374
1520437770381052387,-0.1329068455,0.1088715578,0.0300000133,-0.0143235136,0.2014613872,10.2735664951
1520437770386070387,-0.1618021532,0.1155788334,0.0238822618,-0.0479954096,0.1451044097,10.2820842033
1520437770391086387,-0.1836631166,0.1211247846,0.0172014579,-0.0203363522,0.0851452344,10.2876841737
1520437770396101387,-0.2042660530,0.1252026505,0.0148359394,-0.0347671647,0.0455747243,10.2971603742
1520437770401118387,-0.2226156974,0.1252114887,0.0089180005,-0.0564133836,0.0239918826,10.1951234454
1520437770406134387,-0.2374592959,0.1182372178,-0.0003063774,-0.0828698733,0.0311887856,10.1058888561
1520437770411150387,-0.2482734920,0.1167971861,-0.0081432547,0.0085252729,-0.0491607409,9.9307560244
1520437770416163387,-0.2512910852,0.1214858375,-0.0183828287,0.0325766272,-0.1378990054,9.8109076271
1520437770421179387,-0.2492785657,0.1293824162,-0.0288778291,0.0325766272,-0.1774706394,9.6459217738
1520437770426197387,-0.2384638598,0.1407724993,-0.0369275748,0.1359974505,-0.1558941665,9.5763275976
1520437770431211387,-0.2284059123,0.1492447995,-0.0436454216,0.1456179922,-0.0815482095,9.5238649801
1520437770436228387,-0.2158413589,0.1518852948,-0.0485185761,0.1841001590,-0.0527718365,9.5199759223
1520437770441243387,-0.2005168819,0.1483946863,-0.0485737233,0.1961258361,-0.0323873859,9.5349468644
1520437770446260387,-0.1821769522,0.1443203049,-0.0478272796,0.2105566487,0.0179753880,9.5394058673
1520437770451276387,-0.1625821554,0.1393737190,-0.0476309306,-0.0215389199,-0.0923274546,9.5069082038
1520437770456292387,-0.1389751433,0.1329936387,-0.0555695414,-0.1742650194,-0.3153556786,9.4760722123
1520437770461307387,-0.1118667035,0.1167187894,-0.0676484597,-0.0732493316,-0.3045712822,9.5482935326
1520437770466321387,-0.0840088169,0.0948977313,-0.0759833743,0.0337791949,-0.2710036861,9.7261892101
1520437770471339387,-0.0589194044,0.0672355164,-0.0797583363,-0.0179312168,-0.2482159906,9.7905882275
1520437770476354387,-0.0348405934,0.0375419571,-0.0867935439,0.0337791949,-0.1774707330,9.8527716926
1520437770481369387,-0.0135332871,0.0017245976,-0.0925175728,0.0229560855,-0.1127163072,9.8876782124
1520437770486386387,0.0057698738,-0.0303091929,-0.0968562383,-0.0167286490,-0.0707433016,9.8392135063
1520437770491401387,0.0263430817,-0.0515576214,-0.1024677127,-0.0491979773,-0.0419614027,9.7430435305
1520437770496417387,0.0426574096,-0.0626070799,-0.1088050826,0.0614382523,0.0155887209,9.6303447174
1520437770501434387,0.0577289608,-0.0669704836,-0.1094075241,0.1311871796,0.0239772716,9.5901447443
1520437770506450387,0.0677875551,-0.0628908042,-0.1080423403,0.0951101483,0.0395689069,9.6113992858
1520437770511465387,0.0740742952,-0.0590974302,-0.1091072919,0.0866921743,0.0995265837,9.6300170575
1520437770516480387,0.0780930575,-0.0587964576,-0.1120885412,0.0818819034,0.0515613414,9.6882178490
1520437770521497387,0.0755668378,-0.0643148090,-0.1191603059,0.1468205599,-0.0012058948,9.8108244860
1520437770526512387,0.0745545191,-0.0680966458,-0.1216222522,0.2297977321,-0.0335891488,9.8565341675
1520437770531527387,0.0690067231,-0.0806210622,-0.1244130359,0.3115723366,-0.0695697304,9.8894754785
1520437770536543387,0.0614502065,-0.0925664109,-0.1261134561,0.3320159877,-0.0899567098,9.8834856515
1520437770541560387,0.0586727664,-0.1015975005,-0.1272594213,0.3512570711,-0.0815642254,9.8135615480
1520437770546575387,0.0548943572,-0.1065452300,-0.1299956719,0.3368262586,-0.0755673994,9.8183447378
1520437770551590387,0.0486124589,-0.1059641939,-0.1302501035,0.3548647743,-0.0084169406,9.7576721933
1520437770556608387,0.0433368967,-0.1056792475,-0.1286148039,0.3873341025,0.0887109049,9.8293143655
1520437770561623387,0.0358071173,-0.1024929969,-0.1226243385,0.4246137016,0.1510633035,9.8567821580
1520437770566638387,0.0295367724,-0.0999014063,-0.1120413728,0.4125880245,0.1642547847,9.7976170042
1520437770571654387,0.0247801598,-0.0929384572,-0.1014278610,0.4618933007,0.2146148425,9.7901151209
1520437770576671387,0.0177692478,-0.0810250424,-0.0899607187,0.4679061393,0.2481903060,9.7737538387
1520437770581685387,0.0117668713,-0.0679515232,-0.0763221837,0.4751215456,0.2973545014,9.7410956348
1520437770586702387,0.0067758060,-0.0502147292,-0.0629204921,0.4186008630,0.2817700779,9.7997681715
1520437770591718387,0.0007819642,-0.0310228633,-0.0489647264,0.3560673420,0.3237448631,9.8142816350
1520437770596734387,-0.0039603976,-0.0150335497,-0.0358473860,0.2694824666,0.3069636407,9.8569779522
1520437770601750387,-0.0134800286,0.0006697931,-0.0254288598,0.2791030083,0.2398110277,9.8883276815
1520437770606765387,-0.0212416263,0.0146211473,-0.0134036639,0.2430259770,0.1702636929,9.8434230407
1520437770611781387,-0.0305186617,0.0268410860,-0.0078821076,0.1744796173,0.1294982571,9.8278599711
1520437770616797387,-0.0375346663,0.0390640961,-0.0031763896,0.1853027267,0.0719386739,9.7975950110
1520437770621812387,-0.0425441497,0.0492518442,0.0001573036,0.1792898882,0.0071855593,9.8256081355
1520437770626829387,-0.0500715965,0.0544792434,0.0056222388,0.1540359662,-0.0048038781,9.8653785296
1520437770631844387,-0.0540885083,0.0565137177,0.0069979974,0.0734639294,-0.0023993220,9.8928897406
1520437770636860387,-0.0593589622,0.0623429828,0.0056995308,0.0325766272,-0.0323746482,9.8479933318
1520437770641877387,-0.0608702678,0.0623540470,0.0013735968,-0.0191337845,-0.0455611654,9.7869158824
1520437770646892387,-0.0671584976,0.0597364091,-0.0013402018,-0.0359697325,-0.0935254711,9.8510444442
1520437770651908387,-0.0694280083,0.0577125853,-0.0075741185,0.0001072989,-0.0731428937,9.7902419281
1520437770656923387,-0.0714449029,0.0556844893,-0.0121852265,0.0518177106,0.0191868915,9.7675678365
1520437770661939387,-0.0749703863,0.0516095550,-0.0143741828,0.0806793357,-0.0107938669,9.6941010795
1520437770666954387,-0.0739730631,0.0469528954,-0.0163054403,0.0542228460,-0.0263806319,9.7152923833
1520437770671970387,-0.0732236555,0.0431630066,-0.0155241029,0.0349817626,0.0119933602,9.7107936695
1520437770676986387,-0.0732247611,0.0402396917,-0.0120292371,0.0566279814,0.0335762019,9.6431575811
1520437770682002387,-0.0732283718,0.0364465938,-0.0101643159,0.0458048720,0.0383736066,9.6223396580
1520437770687019387,-0.0722278849,0.0326575319,-0.0096539911,0.0397920335,0.0371749344,9.6328586482
1520437770692034387,-0.0704738504,0.0297480180,-0.0110322185,0.0349817626,-0.0023963249,9.6794298148
1520437770697050387,-0.0659491543,0.0297454196,-0.0094173442,0.0301714918,0.0095954540,9.6631949263
1520437770702066387,-0.0609196572,0.0326626909,-0.0099455396,0.0157406792,0.0143931396,9.5959263603
1520437770707082387,-0.0553886640,0.0341203227,-0.0094036003,-0.0359697325,0.0263885712,9.5638779536
1520437770712097387,-0.0485973896,0.0396636576,-0.0109972386,-0.0419825710,-0.0047886115,9.6081283520
1520437770717112387,-0.0420591272,0.0449198801,-0.0142159086,-0.0504005450,0.0000086058,9.5872870188
1520437770722130387,-0.0367830358,0.0455112726,-0.0166561767,-0.0600210867,-0.0179777513,9.5676417521
1520437770727144387,-0.0292485049,0.0458216362,-0.0226199650,-0.0696416284,-0.0599469168,9.5759113272
1520437770732159387,-0.0197035402,0.0458399462,-0.0280486184,-0.0419825710,-0.0755378965,9.5756573123
1520437770737177387,-0.0124209707,0.0446889182,-0.0323997800,-0.0455902742,-0.1247023729,9.6117668329
1520437770742193387,-0.0061483480,0.0400408820,-0.0367757518,-0.0672364930,-0.1019170189,9.5259566539
1520437770747208387,-0.0008780588,0.0383099395,-0.0424803553,-0.0359697325,-0.1055168754,9.5186829667
1520437770752225387,0.0079096653,0.0357047649,-0.0476570704,-0.0179312168,-0.1043191398,9.5684784116
1520437770757239387,0.0177027611,0.0333920970,-0.0531039752,0.0001072989,-0.0767403150,9.6217345628
1520437770762256387,0.0239795629,0.0316571777,-0.0571871703,0.0626408200,-0.0671520619,9.6571430077
1520437770767272387,0.0264845457,0.0264161545,-0.0583140366,0.1047306900,-0.0443716720,9.6904132880
1520437770772288387,0.0302380211,0.0173970943,-0.0629892334,0.1600488048,-0.0155966102,9.7526025648
1520437770777304387,0.0342512791,0.0118623636,-0.0630389395,0.1480231276,0.0131836966,9.7922044456
1520437770782318387,0.0352519856,0.0080725733,-0.0622580689,0.1408077214,0.0167816798,9.7783254405
1520437770787335387,0.0375082609,0.0031155518,-0.0606767864,0.1384025859,0.0491586586,9.7887765740
1520437770792350387,0.0385101592,0.0016633936,-0.0623130441,0.1203640702,0.0587531869,9.7749970677
1520437770797366387,0.0372526065,-0.0000897764,-0.0607007737,0.0650459554,0.0695497590,9.7790114081
1520437770802383387,0.0362418285,-0.0024132337,-0.0636926963,0.0433997366,0.0887376917,9.7885005414
1520437770807399387,0.0379942439,-0.0032684873,-0.0704662800,0.0337791949,0.0491668070,9.7897949140
1520437770812414387,0.0392451162,-0.0038347386,-0.0764250695,0.0373868980,0.0227854367,9.7467861979
1520437770817430387,0.0394883273,-0.0070274867,-0.0810492704,0.0554254137,0.0263814531,9.7710121371
1520437770822445387,0.0377186856,-0.0113836467,-0.0867608134,0.0325766272,0.0299806539,9.8223653592
1520437770827461387,0.0346952785,-0.0134077659,-0.0929933300,0.0373868980,0.0059974708,9.8293147894
1520437770832476387,0.0334301712,-0.0160139650,-0.0992335597,0.0409946012,0.0323782791,9.8385511004
1520437770837494387,0.0309134978,-0.0148319291,-0.1057131017,0.0530202783,0.0539618701,9.8814123281
1520437770842509387,0.0253825987,-0.0139482867,-0.1100248988,0.0313740595,0.0683532411,9.8990411463
1520437770847524387,0.0195928384,-0.0168447288,-0.1173411342,-0.0095132428,0.0587633021,9.9133942004
1520437770852540387,0.0143074360,-0.0182833229,-0.1249177335,0.0013098666,0.0407753528,9.9191171148
1520437770857556387,0.0095250233,-0.0208938141,-0.1300692456,-0.0552108159,0.0455763165,9.9196625751
1520437770862572387,0.0037369762,-0.0235032423,-0.1357599825,-0.0504005450,0.0371819589,9.9138132204
1520437770867587387,-0.0033114776,-0.0278563709,-0.1433555457,-0.0828698733,0.0491758920,9.9036582680
1520437770872603387,-0.0096015500,-0.0298824985,-0.1493114489,-0.0431851387,0.0479736608,9.8533009804
1520437770877619387,-0.0111191087,-0.0365827481,-0.1501714172,-0.0768570347,0.0479762833,9.8408451385
1520437770882634387,-0.0128937253,-0.0458982725,-0.1537563855,-0.1201494724,0.0779581656,9.8423994310
1520437770887650387,-0.0159204374,-0.0523019009,-0.1567756976,-0.0732493316,0.0551708448,9.8117494085
1520437770892666387,-0.0136678590,-0.0604663374,-0.1544072314,0.0073227052,0.0827447994,9.7295881981
1520437770897682387,-0.0073986354,-0.0718351569,-0.1518001408,0.0878947420,0.0863359454,9.6741796854
1520437770902698387,-0.0006179304,-0.0779646854,-0.1469896010,0.1203640702,0.0695454507,9.6018270945
1520437770907714387,0.0094329054,-0.0852744976,-0.1362420113,0.1865052944,0.0359643675,9.6221346491
1520437770912729387,0.0174758125,-0.0914224731,-0.1243996118,0.2370131384,-0.0180008853,9.6414521042
1520437770917746387,0.0260282643,-0.0940809216,-0.1098260098,0.2562542218,-0.0599722986,9.6738457809
1520437770922761387,0.0335741604,-0.0964425520,-0.0974126849,0.2514439509,-0.0731624687,9.7227155099
1520437770927777387,0.0411209778,-0.0990999375,-0.0833783078,0.2237848935,-0.0611689102,9.7578373514
1520437770932792387,0.0428873537,-0.1008796064,-0.0714908940,0.1564411016,-0.0779516312,9.8096435393
1520437770937809387,0.0449053421,-0.1003186311,-0.0631032588,0.0506151429,-0.0395708956,9.8117983094
1520437770942825387,0.0461726056,-0.0959633964,-0.0571202364,-0.0335645970,-0.0371660585,9.8928032575
1520437770947840387,0.0439276249,-0.0872387722,-0.0510973337,-0.0973006858,-0.0215722691,9.8422740901
1520437770952855387,0.0399167819,-0.0817120542,-0.0480716226,-0.1766701549,0.0060141422,9.8918297751
1520437770957871387,0.0341450515,-0.0744238780,-0.0501696780,-0.2271779988,0.0551828333,9.9620020818
1520437770962887387,0.0266185849,-0.0639311613,-0.0522400124,-0.2524319208,0.0623796427,9.9703758797
1520437770967903387,0.0155749070,-0.0511014623,-0.0569914870,-0.3233834158,0.1055542239,9.9652136620
1520437770972919387,0.0047767689,-0.0408868414,-0.0644688949,-0.3378142284,0.1906943179,9.9524875161
1520437770977935387,-0.0035059151,-0.0280451330,-0.0732836919,-0.4448427549,0.2686467811,9.9766961381
1520437770982950387,-0.0143079619,-0.0181102417,-0.0850920573,-0.4520581611,0.2842361686,10.0476419483
1520437770987967387,-0.0253576145,-0.0064315123,-0.0952633421,-0.3678784212,0.2818313316,10.0677435242
1520437770992983387,-0.0306326748,0.0008765284,-0.1046670702,-0.3281936867,0.3166033131,10.1254305442
1520437770997999387,-0.0389283392,0.0035168646,-0.1124774915,-0.3402193638,0.3297947943,10.1173997244
1520437771003014387,-0.0482293322,0.0055718527,-0.1194788544,-0.3281936867,0.3237981556,10.1138020886
1520437771008031387,-0.0570275551,0.0064556721,-0.1243256760,-0.3209782804,0.3945468786,10.0729878289
1520437771013045387,-0.0593037109,-0.0011073715,-0.1295196477,-0.2704704365,0.3681618556,10.1131969804
1520437771018062387,-0.0628324522,-0.0083911778,-0.1303803284,-0.2187600248,0.3705561090,10.1115291803
1520437771023078387,-0.0656083516,-0.0159638879,-0.1320562701,-0.2019240768,0.3597625340,10.0695386512
1520437771028093387,-0.0673762918,-0.0244234696,-0.1288709217,-0.1718598840,0.3597601925,10.0634353050
1520437771033108387,-0.0676349924,-0.0337653553,-0.1224484922,-0.1357828526,0.3081943445,10.0259458284
1520437771038125387,-0.0668887642,-0.0442767558,-0.1144135466,-0.1478085298,0.3381737917,10.0144122059
1520437771043141387,-0.0658946206,-0.0556549272,-0.1090911959,-0.1983163737,0.3261863212,10.0114290798
1520437771048157387,-0.0573596225,-0.0664510180,-0.1024256712,-0.2067343477,0.3201912747,10.0080304301
1520437771053173387,-0.0518352862,-0.0749230415,-0.0935723941,-0.2945217907,0.3369860778,10.0053820966
1520437771058188387,-0.0453071974,-0.0810482979,-0.0903846629,-0.3378142284,0.2998160964,10.0128125918
1520437771063204387,-0.0342531813,-0.0865948405,-0.0850365194,-0.3690809889,0.2938228294,10.0433385128
1520437771068220387,-0.0272176139,-0.0901018098,-0.0802064386,-0.3666758535,0.2662424124,10.0212612624
1520437771073236387,-0.0234467750,-0.0918610235,-0.0756274977,-0.3654732858,0.2446577911,10.0445134845
1520437771078252387,-0.0171661587,-0.0956574874,-0.0716098775,-0.4304119423,0.2230783211,10.0358694540
1520437771083267387,-0.0121426480,-0.0982816212,-0.0702864902,-0.4376273486,0.2014943555,10.0034207018
1520437771088284387,-0.0086286906,-0.1023639968,-0.0687008722,-0.4195888329,0.2218783378,9.9927659516
1520437771093300387,-0.0083834645,-0.1073196206,-0.0679274936,-0.4111708589,0.2242759630,9.9496823512
1520437771098315387,-0.0056206790,-0.1105332370,-0.0644399849,-0.3799040984,0.2050872811,9.9470724412
1520437771103330387,-0.0036034315,-0.1079209150,-0.0603655225,-0.3811066661,0.2002908130,9.9575481192
1520437771108347387,-0.0038458036,-0.1029747608,-0.0576218043,-0.3762963952,0.2074852809,9.9203056764
1520437771113362387,-0.0028348963,-0.1015298277,-0.0530132756,-0.3642707181,0.1954929401,9.9434431983
1520437771118379387,-0.0076075589,-0.1032945742,-0.0476068284,-0.3426244993,0.1667118840,9.9432605715
1520437771123394387,-0.0083528815,-0.0989328428,-0.0443255312,-0.3390167961,0.1667116031,9.8653618114
1520437771128410387,-0.0158818650,-0.0937003446,-0.0407544173,-0.3281936867,0.1223425645,9.8722725951
1520437771133425387,-0.0203953959,-0.0890516192,-0.0363817126,-0.3089526033,0.1175445042,9.8581442641
1520437771138440387,-0.0251587280,-0.0826517715,-0.0330773863,-0.3041423324,0.0707776531,9.8407108888
1520437771143457387,-0.0326883270,-0.0777099293,-0.0297790414,-0.3077500356,0.0048252107,9.8222160144
1520437771148472387,-0.0372011561,-0.0733562307,-0.0240558302,-0.3342065253,-0.0023675713,9.8294534054
1520437771153489387,-0.0404511988,-0.0640470459,-0.0188382521,-0.3293962544,-0.0539309841,9.7829711086
1520437771158504387,-0.0462260185,-0.0626025858,-0.0150287595,-0.3823092338,-0.1390658331,9.7638127069
1520437771163519387,-0.0509908521,-0.0594174374,-0.0082317904,-0.4015503172,-0.1642462835,9.7198630737
1520437771168537387,-0.0532421642,-0.0538914871,-0.0046682546,-0.4340196454,-0.1486549292,9.7015696055
1520437771173552387,-0.0575060193,-0.0486518815,-0.0032675753,-0.4628812706,-0.1582458047,9.6821034344
1520437771178567387,-0.0579983298,-0.0440030377,0.0016387536,-0.4544632966,-0.1510516178,9.6529608841
1520437771183583387,-0.0594990425,-0.0399293441,0.0035664984,-0.4364247809,-0.1726375503,9.5958613026
1520437771188600387,-0.0637617097,-0.0338155849,0.0049738470,-0.4376273486,-0.1690400354,9.6284095304
1520437771193616387,-0.0629925550,-0.0256703630,0.0101750652,-0.4460453226,-0.1498531330,9.5912841498
1520437771198632387,-0.0634872373,-0.0213063479,0.0126442580,-0.4388299163,-0.1306674482,9.5737630507
1520437771203647387,-0.0647390662,-0.0172245431,0.0115955312,-0.4532607288,-0.1378611668,9.5762348153
1520437771208663387,-0.0622168375,-0.0099367600,0.0108348035,-0.4568684320,-0.1726359581,9.5960602886
1520437771213678387,-0.0619516878,-0.0026651601,0.0157597400,-0.4989583019,-0.1630395566,9.6173792020
1520437771218695387,-0.0629466313,0.0052032851,0.0152805384,-0.5157942499,-0.1354580156,9.5803275715
1520437771223711387,-0.0601780278,0.0101659178,0.0123371920,-0.5326301979,-0.1630369341,9.6025990722
1520437771228726387,-0.0619310860,0.0168772708,0.0086039475,-0.5422507396,-0.1486464998,9.5980301047
1520437771233740387,-0.0621782880,0.0218394505,0.0053956559,-0.5302250625,-0.1546431385,9.6385939393
1520437771238757387,-0.0626748992,0.0273806586,0.0035450067,-0.4953505988,-0.1018836760,9.6393651857
1520437771243774387,-0.0614142690,0.0305871091,0.0032965812,-0.4893377602,-0.0898927401,9.6102413681
1520437771248789387,-0.0616627530,0.0323338610,0.0038514782,-0.5206045208,-0.0790980411,9.6186701832
1520437771253805387,-0.0619093434,0.0361232182,0.0033397532,-0.5206045208,-0.0395264071,9.6534959137
1520437771258821387,-0.0601484913,0.0375815585,0.0030770557,-0.5013634374,-0.0059519738,9.6404923078
1520437771263835387,-0.0581387122,0.0387551686,0.0003767553,-0.5590866876,-0.0395234100,9.6538704755
1520437771268852387,-0.0578883347,0.0390510221,-0.0012447637,-0.5578841199,-0.0862899802,9.6573908065
1520437771273868387,-0.0568877537,0.0376032345,-0.0045042968,-0.5470610105,-0.0850916827,9.6805271707
1520437771278884387,-0.0556344664,0.0370289705,-0.0074870814,-0.5530738490,-0.0874894952,9.6945337622
1520437771283899387,-0.0541329618,0.0335380459,-0.0094103801,-0.5338327656,-0.0623090449,9.7036190768
1520437771288916387,-0.0536376639,0.0294646869,-0.0116068039,-0.5398456042,-0.0491180319,9.7501504975
1520437771293932387,-0.0551537211,0.0259791367,-0.0159594149,-0.5386430365,-0.0179404746,9.7512705336
1520437771298947387,-0.0576785804,0.0201635734,-0.0208690355,-0.5206045208,-0.0191410199,9.7325018238
1520437771303963387,-0.0586873433,0.0160772403,-0.0184633787,-0.5446558750,-0.0239357084,9.7106598671
1520437771308979387,-0.0589474827,0.0105452064,-0.0201284260,-0.6047842607,-0.0107404807,9.6903136660
1520437771313994387,-0.0602104847,0.0070539272,-0.0223171366,-0.6420638598,-0.0323221049,9.7023190104
1520437771319011387,-0.0619785895,0.0026926682,-0.0261348583,-0.6071893961,-0.0323248210,9.6810609726
1520437771324027387,-0.0614856674,-0.0031289980,-0.0283446207,-0.6516844015,-0.0551050237,9.6791919893
1520437771329042387,-0.0594859207,-0.0098249555,-0.0302933067,-0.6168099378,-0.0623025824,9.6928052861
1520437771334057387,-0.0602471641,-0.0150694439,-0.0306024679,-0.5927585836,-0.0814907023,9.6809684549
1520437771339074387,-0.0534696190,-0.0206030916,-0.0306573081,-0.5903534481,-0.0635037833,9.6181717311
1520437771344090387,-0.0497011519,-0.0226471339,-0.0285155034,-0.5470610105,-0.0431217679,9.6293519099
1520437771349105387,-0.0444291573,-0.0270180196,-0.0277470131,-0.5795303387,-0.0275304135,9.6680034955
1520437771354122387,-0.0368963122,-0.0331414253,-0.0251022407,-0.5795303387,-0.0143398689,9.6331263141
1520437771359137387,-0.0311153924,-0.0357769186,-0.0194515193,-0.5843406096,-0.0287291793,9.6564300455
1520437771364152387,-0.0240772297,-0.0375363092,-0.0143375540,-0.4965531665,-0.0251385952,9.6311670453
1520437771369168387,-0.0165366457,-0.0395876159,-0.0089561994,-0.5109839791,-0.0311331734,9.6406105043
1520437771374184387,-0.0057204697,-0.0366906615,-0.0011082067,-0.5230096562,-0.0083485688,9.7139204066
1520437771379201387,0.0020806966,-0.0317479126,0.0040554894,-0.4664889737,-0.0203443750,9.7447598491
1520437771384215387,0.0093804101,-0.0256383656,0.0086879194,-0.4616787028,-0.0215438901,9.7784163729
1520437771389233387,0.0161806896,-0.0186614179,0.0157628653,-0.4243991037,-0.0083562489,9.8198778357
1520437771394248387,0.0232285750,-0.0134283083,0.0212007305,-0.4508555934,-0.0323369968,9.8515366205
1520437771399264387,0.0302761977,-0.0079016288,0.0258291811,-0.4376273486,-0.0311388867,9.8421095439
1520437771404280387,0.0317923451,-0.0035382829,0.0288357319,-0.3931323432,-0.0251466500,9.8358598904
1520437771409295387,0.0335598775,0.0002394786,0.0329195533,-0.3991451818,-0.0215487604,9.8975085372
1520437771414310387,0.0353235405,0.0019811907,0.0356350837,-0.4087657235,-0.0359376962,9.9103997932
1520437771419327387,0.0348287249,0.0057602515,0.0389114681,-0.3690809889,-0.0815081231,9.9542194315
1520437771424343387,0.0343373356,0.0101133401,0.0454388493,-0.3438270670,-0.1210817239,9.9679579410
1520437771429358387,0.0305724244,0.0118528861,0.0481646476,-0.3281936867,-0.1222820819,9.9864012479
1520437771434374387,0.0247954956,0.0127189478,0.0503464187,-0.3089526033,-0.1186861592,9.9676161557
1520437771439390387,0.0195272332,0.0170774501,0.0541772087,-0.2788884105,-0.1606584155,9.9580673045
1520437771444406387,0.0122502502,0.0220150201,0.0590983622,-0.2728755719,-0.1594597434,9.9463861703
1520437771449422387,0.0027060814,0.0240429577,0.0621076642,-0.2295831342,-0.1738528002,9.9587624039
1520437771454437387,-0.0068352294,0.0275249043,0.0662102651,-0.2115446185,-0.1786507668,9.9376729142
1520437771459453387,-0.0131097025,0.0298374936,0.0721917276,-0.2127471863,-0.1990360604,9.9074887552
1520437771464468387,-0.0274234918,0.0347737637,0.0765848576,-0.2271779988,-0.1822469705,9.9087749891
1520437771469486387,-0.0389764203,0.0391370890,0.0777218567,-0.1730624517,-0.1642640789,9.8826635545
1520437771474501387,-0.0510287827,0.0443678150,0.0813013716,-0.1442008266,-0.1402835182,9.8777106705
1520437771479516387,-0.0618260153,0.0484327667,0.0851402065,-0.1033135244,-0.1438841240,9.8052632815
1520437771484531387,-0.0726222365,0.0530797591,0.0892540334,-0.0564133836,-0.1318963725,9.8001465151
1520437771489548387,-0.0824147128,0.0571465616,0.0925499095,-0.0047029719,-0.1330995403,9.7822122077
1520437771494564387,-0.0891920423,0.0612160023,0.0952990932,0.0301714918,-0.1139160096,9.7144497022
1520437771499583387,-0.0952114334,0.0661504225,0.1015706426,0.0157406792,-0.1115166049,9.7169121121
1520437771504596387,-0.0969616847,0.0716816687,0.1032394237,0.0794767680,-0.0935344625,9.7151120601
1520437771509611387,-0.0959485231,0.0786803902,0.1013970896,0.1359974505,-0.0659586348,9.7284807551
1520437771514626387,-0.0926699398,0.0856676145,0.1041498352,0.1552385339,-0.0791506780,9.7317927688
1520437771519643387,-0.0883819389,0.0952755080,0.1077323593,0.1973284039,-0.0851496582,9.7116324913
1520437771524659387,-0.0818385800,0.1016856137,0.1088513160,0.2706850343,-0.0995450565,9.7376618259
1520437771529675387,-0.0727778812,0.1098384553,0.1124138570,0.2502413832,-0.0635692516,9.7924464975
1520437771534689387,-0.0624620486,0.1182890011,0.1138119203,0.2730901698,-0.0575753290,9.8456768766
1520437771539706387,-0.0516346445,0.1328566336,0.1160673726,0.2815081438,-0.0671691080,9.8374692883
1520437771544721387,-0.0423250148,0.1421882235,0.1147685131,0.3055594980,-0.0695692621,9.8500211093
1520437771549738387,-0.0337691051,0.1518116310,0.1132027309,0.3079646335,-0.0647728877,9.8732359009
1520437771554754387,-0.0231989314,0.1649353541,0.1105777085,0.2658747635,-0.0839558564,9.8097463699
1520437771559769387,-0.0143935263,0.1733940504,0.1087320213,0.2430259770,-0.0827549364,9.8390211954
1520437771564784387,-0.0091074417,0.1836113303,0.1025774725,0.2093540810,-0.0731591906,9.7858809604
1520437771569801387,-0.0045742421,0.1944103555,0.0966993160,0.2117592164,-0.1103327310,9.7463809054
1520437771574817387,-0.0015460637,0.2072484817,0.0908395213,0.1792898882,-0.1427069936,9.7234856350
1520437771579832387,0.0012242138,0.2142544482,0.0865590071,0.1335923151,-0.1930673323,9.7332766910
1520437771584848387,0.0007185975,0.2183620435,0.0760397738,0.0842870388,-0.2062540369,9.7500394764
1520437771589864387,-0.0002915963,0.2210125192,0.0655103585,0.0987178514,-0.1930646162,9.7208325541
1520437771594880387,-0.0023012734,0.2251071405,0.0595932058,0.0854896066,-0.2518214667,9.7442614865
1520437771599896387,-0.0065749216,0.2297938427,0.0498970572,0.0542228460,-0.2626112953,9.7236577508
1520437771604912387,-0.0065778540,0.2333159521,0.0404546278,0.0109304084,-0.2674044853,9.7240838102
1520437771609927387,-0.0123649759,0.2318742473,0.0339611456,0.0458048720,-0.2829960269,9.7063274057
1520437771614943387,-0.0181554380,0.2292728319,0.0252944038,0.0794767680,-0.2937909132,9.7257666354
1520437771619960387,-0.0216871548,0.2258039764,0.0144524250,0.0890973097,-0.3033847859,9.7628709562
1520437771624975387,-0.0239694186,0.2165050090,0.0046458345,0.1672642110,-0.3165814184,9.7446908309
1520437771629991387,-0.0247409491,0.2066114799,-0.0005687222,0.1937207007,-0.3141851981,9.7688360040
1520437771635006387,-0.0270218524,0.1970153004,-0.0082131686,0.1841001590,-0.2830067978,9.7131163319
1520437771640023387,-0.0272901658,0.1888761029,-0.0155796875,0.1756821850,-0.2985949677,9.7411049236
1520437771645037387,-0.0237910237,0.1781108223,-0.0210793937,0.2418234092,-0.2614267659,9.7206684487
1520437771650055387,-0.0185356045,0.1655993807,-0.0271367972,0.2249874613,-0.2494340504,9.6813077317
1520437771655070387,-0.0115181886,0.1557132743,-0.0339890978,0.2153669196,-0.2590264245,9.7232479092
1520437771660086387,-0.0042491209,0.1464114923,-0.0413785107,0.2165694873,-0.2086626204,9.7475921149
1520437771665101387,0.0045316052,0.1376828720,-0.0449786352,0.2863184146,-0.1978757888,9.7143626669
1520437771670117387,0.0107974494,0.1269106618,-0.0475074705,0.3452442326,-0.1583087442,9.7137505309
1520437771675132387,0.0220982794,0.1190375120,-0.0438008538,0.3356236908,-0.1655028375,9.6487711260
1520437771680148387,0.0351605337,0.1132062000,-0.0406230344,0.3320159877,-0.1427188884,9.7138640851
1520437771685163387,0.0439490340,0.1053298804,-0.0361001127,0.3753084254,-0.1187394517,9.7227164679
1520437771690180387,0.0529896681,0.0977435869,-0.0310343430,0.3957520765,-0.1175419035,9.7782992225
1520437771695196387,0.0617779057,0.0901608371,-0.0273208360,0.3560673420,-0.1223353744,9.8344730765
1520437771700212387,0.0695568551,0.0790788938,-0.0228205014,0.3885366702,-0.1259353245,9.8597277150
1520437771705228387,0.0730700989,0.0709011094,-0.0153139968,0.4859446550,-0.1739085279,9.9053121371
1520437771710244387,0.0775894202,0.0641842835,-0.0091509732,0.4246137016,-0.1822977342,9.8908094090
1520437771715259387,0.0795904763,0.0545569984,-0.0046287886,0.3608776128,-0.1427211363,9.9076612041
1520437771720276387,0.0778262762,0.0490119905,-0.0016917553,0.3789161285,-0.1475191029,9.8981931540
1520437771725290387,0.0773151830,0.0411371270,0.0009546138,0.3921443734,-0.1631089586,9.8957553119
1520437771730307387,0.0747979214,0.0358817514,0.0044363622,0.3765109931,-0.1547137581,9.8854399967
1520437771735322387,0.0680067372,0.0312162122,0.0046839402,0.3644853160,-0.1798947704,9.9169594901
1520437771740338387,0.0602169517,0.0294553833,0.0082021668,0.3500545034,-0.2422489485,9.9276200520
1520437771745355387,0.0526725767,0.0259580006,0.0073778538,0.3416365294,-0.2566379779,9.9509588986
1520437771750370387,0.0441251626,0.0242092597,0.0062982003,0.3512570711,-0.2482447443,9.9694513760
1520437771755387387,0.0302960783,0.0210095413,0.0022412277,0.3416365294,-0.2914130502,9.9928299918
1520437771760402387,0.0177282788,0.0195506096,0.0011712648,0.3632827482,-0.2998087191,9.9380067203
1520437771765417387,0.0056620656,0.0175098342,-0.0001746235,0.3572699097,-0.3022065316,9.9020411216
1520437771770434387,-0.0109223751,0.0207187640,-0.0039070084,0.3320159877,-0.3441744796,9.8814092635
1520437771775450387,-0.0252479021,0.0204254096,-0.0052353577,0.3151800397,-0.3549654321,9.8397464760
1520437771780465387,-0.0363080810,0.0201384342,-0.0084635958,0.3115723366,-0.3669565554,9.8177125495
1520437771785481387,-0.0478671215,0.0213023571,-0.0095154177,0.3308134200,-0.4113262496,9.7885149352
1520437771790497387,-0.0596753045,0.0242152171,-0.0108239804,0.2947363886,-0.4281114057,9.8318817840
1520437771795513387,-0.0677173924,0.0247992062,-0.0124278744,0.3007492272,-0.4496964017,9.7760613970
1520437771800528387,-0.0714847186,0.0265467650,-0.0126780810,0.2971415240,-0.4772763504,9.7807719828
1520437771805544387,-0.0734953288,0.0265467058,-0.0129448931,0.2682798989,-0.4484947324,9.8135648707
1520437771810560387,-0.0747519523,0.0274247376,-0.0145591656,0.2502413832,-0.4377010637,9.7637577325
1520437771815575387,-0.0732448611,0.0277203551,-0.0159124723,0.2899261178,-0.4760766480,9.7866517636
1520437771820592387,-0.0714981264,0.0207372852,-0.0194861901,0.2899261178,-0.4508946992,9.7598978965
1520437771825608387,-0.0677358065,0.0187136390,-0.0249196704,0.2586593572,-0.4616845278,9.7474291685
1520437771830623387,-0.0624610754,0.0196022434,-0.0295220826,0.2670773312,-0.4640834643,9.7357281323
1520437771835639387,-0.0569453405,0.0129149487,-0.0341827617,0.3079646335,-0.4928660189,9.7597632475
1520437771840655387,-0.0506744742,0.0082727400,-0.0407231006,0.3536622065,-0.5012635609,9.7442187694
1520437771845671387,-0.0461632289,0.0027535032,-0.0464552041,0.3885366702,-0.5396387706,9.7113767109
1520437771850687387,-0.0378803019,-0.0013080625,-0.0519126471,0.4414496496,-0.5552317171,9.7027418821
1520437771855702387,-0.0248236693,-0.0077061181,-0.0546912835,0.4871472227,-0.5780189443,9.7371836260
1520437771860717387,-0.0155314619,-0.0111954475,-0.0560879588,0.4510701913,-0.5828126962,9.7572959023
1520437771865733387,-0.0087569002,-0.0158411014,-0.0612765017,0.4546778944,-0.5708215729,9.7014661839
1520437771870749387,0.0002820756,-0.0196168147,-0.0645687546,0.4919574935,-0.5804175998,9.7510848719
1520437771875764387,0.0130939211,-0.0210607033,-0.0675796778,0.4570830299,-0.5864105857,9.7642137488
1520437771880780387,0.0206270446,-0.0216237648,-0.0738206812,0.4378419465,-0.5840108063,9.8585323513
1520437771885798387,0.0276613458,-0.0224922479,-0.0749226023,0.4318291079,-0.5552309679,9.8353199333
1520437771890813387,0.0364502577,-0.0242232690,-0.0800926482,0.4282214047,-0.5372435805,9.9015797138
1520437771895829387,0.0402159178,-0.0250872045,-0.0833528690,0.4390445142,-0.5264521597,9.8921666926
1520437771900844387,0.0447304993,-0.0309102091,-0.0844879153,0.4210059985,-0.5444378611,9.9097919679
1520437771905860387,0.0454733598,-0.0364345649,-0.0888602885,0.3909418056,-0.5432363792,9.9681906226
1520437771910877387,0.0437049884,-0.0419657327,-0.0910636272,0.3885366702,-0.5396387706,9.9647240929
1520437771915891387,0.0399238075,-0.0489531538,-0.0938154394,0.3801186962,-0.5168544469,9.9705945306
1520437771920907387,0.0343783480,-0.0579729432,-0.0995555509,0.3765109931,-0.5060619021,9.9799162734
1520437771925924387,0.0290790360,-0.0722441114,-0.1029012316,0.4089803213,-0.5048652905,9.9714640598
1520437771930938387,0.0210180321,-0.0847687839,-0.1059578940,0.3320159877,-0.4377074326,9.9384455257
1520437771935955387,0.0114562293,-0.0926340800,-0.1081645490,0.3151800397,-0.4556932277,9.9270054971
1520437771940971387,0.0024018227,-0.0958319277,-0.1122303893,0.3199903106,-0.4317107939,9.8839359638
1520437771945987387,-0.0036352807,-0.0972781015,-0.1171001295,0.2779004406,-0.4424997796,9.8715725813
1520437771951002387,-0.0116852329,-0.0984242089,-0.1254810095,0.2586593572,-0.4125197704,9.8531363255
1520437771956018387,-0.0224973669,-0.1004564792,-0.1298052363,0.2935338209,-0.4233147504,9.8272402359
1520437771961034387,-0.0323014007,-0.0998637098,-0.1349229600,0.2658747635,-0.4664816515,9.8322001242
1520437771966049387,-0.0390880490,-0.0995684277,-0.1373430484,0.2418234092,-0.4580857953,9.8614796388
1520437771971066387,-0.0458713531,-0.0966499564,-0.1400136750,0.2382157061,-0.4508906718,9.8487241545
1520437771976082387,-0.0549167859,-0.0937309143,-0.1432211929,0.2730901698,-0.4496942475,9.8170056517
1520437771981097387,-0.0644667059,-0.0913911961,-0.1477849529,0.3175851752,-0.4353080278,9.8002885172
1520437771986113387,-0.0740153557,-0.0902264856,-0.1488405087,0.2983440917,-0.4532936356,9.8272226491
1520437771991128387,-0.0800463120,-0.0916930554,-0.1461349638,0.3248005814,-0.4389060111,9.8188160981
1520437771996144387,-0.0883420392,-0.0960772704,-0.1423652657,0.3464468003,-0.4508991012,9.7860770698
1520437772001161387,-0.0973903025,-0.1007589927,-0.1364320233,0.3223954460,-0.4796765981,9.7352049011
1520437772006177387,-0.1039303683,-0.1071800249,-0.1334927915,0.3644853160,-0.4760824550,9.6813330942
1520437772011192387,-0.1114737828,-0.1127294827,-0.1297333859,0.3680930191,-0.4964681231,9.6359942436
1520437772016207387,-0.1165006023,-0.1159483365,-0.1254197710,0.3680930191,-0.5312431954,9.6139474193
1520437772021223387,-0.1232864744,-0.1209241994,-0.1181402228,0.3620801805,-0.5636195186,9.5140931367
1520437772026240387,-0.1275575078,-0.1235636309,-0.1124708324,0.3428390971,-0.5504274753,9.4631332209
1520437772031255387,-0.1270503860,-0.1229930483,-0.1078680395,0.3091672012,-0.5576196954,9.4611436906
1520437772036272387,-0.1275479734,-0.1212536792,-0.1046072168,0.2694824666,-0.5192441111,9.3545752948
1520437772041288387,-0.1290488586,-0.1160086200,-0.1048349468,0.2189746227,-0.5480195475,9.3306899483
1520437772046302387,-0.1255209092,-0.1093075828,-0.1039787122,0.2249874613,-0.5624097009,9.2725382573
1520437772051319387,-0.1202301672,-0.0979349628,-0.1063367262,0.2225823258,-0.5516172498,9.2818482950
1520437772056334387,-0.1114222099,-0.0874358464,-0.1084373976,0.2093540810,-0.5660059046,9.3447468562
1520437772061350387,-0.1043721565,-0.0760632656,-0.1105281327,0.2153669196,-0.5180407559,9.3585872848
1520437772066365387,-0.0945589999,-0.0641002769,-0.1150544686,0.2358105707,-0.5168432077,9.3502521219
1520437772071382387,-0.0849968835,-0.0538944350,-0.1163471256,0.2105566487,-0.4808670282,9.3272199688
1520437772076398387,-0.0744303205,-0.0445638097,-0.1171072269,0.2249874613,-0.4796690117,9.3503212179
1520437772081413387,-0.0600898293,-0.0311486820,-0.1191959354,0.2273925967,-0.4760717777,9.3700507469
1520437772086430387,-0.0462628424,-0.0241369266,-0.1240380773,0.2358105707,-0.4700767312,9.3792601165
1520437772091445387,-0.0314289077,-0.0185940832,-0.1242939212,0.2382157061,-0.5084494121,9.4199491636
1520437772096461387,-0.0188608848,-0.0156724015,-0.1253772101,0.2658747635,-0.5144472684,9.4499015368
1520437772101476387,-0.0042833534,-0.0142104968,-0.1251226187,0.3416365294,-0.5120548881,9.4177838928
1520437772106492387,0.0087848404,-0.0156710410,-0.1219114530,0.3440416648,-0.5336396031,9.5188880549
1520437772111508387,0.0228640317,-0.0148088562,-0.1154378188,0.3368262586,-0.5444313049,9.4980502181
1520437772116523387,0.0329117116,-0.0200593091,-0.1119794066,0.3777135608,-0.5360405064,9.5278598036
1520437772121540387,0.0412023226,-0.0241463699,-0.1079677432,0.3777135608,-0.5432353489,9.5511096987
1520437772126555387,0.0499937671,-0.0311543634,-0.1012737852,0.3392313940,-0.5456306327,9.5526487431
1520437772131571387,0.0592930901,-0.0337892068,-0.0953590520,0.2971415240,-0.5492247758,9.5600347919
1520437772136588387,0.0660802206,-0.0343787871,-0.0918590030,0.3019517949,-0.5444285888,9.5843883173
1520437772141603387,0.0748778319,-0.0340897841,-0.0897087481,0.2947363886,-0.5216443588,9.5948956258
1520437772146620387,0.0831737668,-0.0340967331,-0.0859365074,0.2430259770,-0.4964583825,9.6348872815
1520437772151635387,0.0859393712,-0.0341000207,-0.0843183660,0.1937207007,-0.5168399296,9.6539813709
1520437772156651387,0.0882048439,-0.0314774023,-0.0840320129,0.1708719142,-0.5731977500,9.6867987566
1520437772161667387,0.0897131622,-0.0320639512,-0.0824159840,0.1901129976,-0.5504155805,9.6958864099
1520437772166682387,0.0897178706,-0.0282744954,-0.0829281757,0.1696693465,-0.5480157075,9.7065423528
1520437772171698387,0.0894665286,-0.0279817525,-0.0834665777,0.0987178514,-0.5504084624,9.7176945854
1520437772176714387,0.0874574553,-0.0279869107,-0.0818395685,0.0590331169,-0.5180285802,9.7622107503
1520437772181729387,0.0841921151,-0.0250663327,-0.0847872751,0.0842870388,-0.5096365640,9.7805510620
1520437772186746387,0.0804241774,-0.0221459515,-0.0877340482,0.0518177106,-0.5144305969,9.7611153287
1520437772191762387,0.0769067857,-0.0215645608,-0.0877230679,0.0878947420,-0.5156325471,9.8130618243
1520437772196778387,0.0733881630,-0.0215644823,-0.0882576256,0.1011229868,-0.5024430327,9.8012987664
1520437772201793387,0.0701280056,-0.0180757038,-0.0857899681,0.1179589348,-0.4856563781,9.8150642523
1520437772206809387,0.0673660080,-0.0157427969,-0.0868492331,0.1480231276,-0.4964509834,9.8380250290
1520437772211825387,0.0628516421,-0.0113839992,-0.0830198432,0.1612513725,-0.4916554519,9.8506751796
1520437772216841387,0.0590928467,-0.0049815723,-0.0805290214,0.1828975913,-0.4892588570,9.8644078773
1520437772221856387,0.0565847864,-0.0011938296,-0.0807660000,0.2406208415,-0.4868650718,9.8615194080
1520437772226872387,0.0560936638,0.0043291678,-0.0758530018,0.1768847527,-0.5072454950,9.9528068832
1520437772231886387,0.0533423062,0.0118953413,-0.0725435169,0.1384025859,-0.4652725831,9.9554648060
1520437772236903387,0.0495801706,0.0171380575,-0.0722259546,0.1660616433,-0.4424910692,9.9365790690
1520437772241919387,0.0483255700,0.0191801707,-0.0732902430,0.1828975913,-0.4269035549,9.9654535957
1520437772246936387,0.0485816635,0.0223840421,-0.0727251640,0.1624539402,-0.4257028223,9.9656514123
1520437772251952387,0.0460719723,0.0238356096,-0.0710861059,0.1768847527,-0.4077168399,9.9643312676
1520437772256966387,0.0440608289,0.0214957330,-0.0681241520,0.2141643518,-0.4125163050,9.9802431036
1520437772261983387,0.0460753007,0.0206048847,-0.0616414535,0.1985309716,-0.3885322790,9.9548047155
1520437772266997387,0.0478305583,0.0153497259,-0.0576265477,0.1576436693,-0.3741394095,9.9551886554
1520437772272014387,0.0473248321,0.0112621329,-0.0546807326,0.1853027267,-0.4149123380,10.0084178185
1520437772277031387,0.0480735732,0.0045474724,-0.0498634376,0.1925181330,-0.4329000063,10.0095272722
1520437772282045387,0.0468148288,0.0004566702,-0.0458340387,0.1552385339,-0.4424902263,9.9994401881
1520437772287062387,0.0463077344,-0.0062606679,-0.0402027724,0.1480231276,-0.4616759111,10.0146369992
1520437772292078387,0.0463095299,-0.0080228152,-0.0350757389,0.1985309716,-0.4472901597,10.0071584911
1520437772297094387,0.0458053836,-0.0124083487,-0.0296972338,0.1684667787,-0.4053179034,10.0422745092
1520437772302108387,0.0432939282,-0.0138779107,-0.0253749477,0.1756821850,-0.4592797844,10.0376083233
1520437772307125387,0.0427906209,-0.0165100380,-0.0218769253,0.1612513725,-0.4436898350,10.0458685903
1520437772312140387,0.0400313833,-0.0165278749,-0.0156492358,0.1696693465,-0.4556818949,10.0992569702
1520437772317156387,0.0392799449,-0.0168290244,-0.0121329620,0.1997335393,-0.4400954108,10.0791926951
1520437772322173387,0.0365228674,-0.0136343472,-0.0085862775,0.1925181330,-0.4376965680,10.1210977692
1520437772327188387,0.0325074492,-0.0113121306,-0.0058555663,0.1816950236,-0.4221068996,10.1572143758
1520437772332203387,0.0277391029,-0.0081153274,-0.0033873315,0.2045438101,-0.4113164153,10.1895214864
1520437772337220387,0.0229701411,-0.0052091802,-0.0011918658,0.1853027267,-0.3933278104,10.2094476745
1520437772342236387,0.0164399784,-0.0028821207,-0.0006208545,0.2249874613,-0.3513609864,10.2125069126
1520437772347252387,0.0101605891,0.0000321769,-0.0016691392,0.2033412424,-0.3309739133,10.2580213390
1520437772352267387,0.0026183311,0.0000401497,-0.0057133259,0.1420102891,-0.3129820303,10.2434928854
1520437772357283387,-0.0056736403,0.0044244225,-0.0118871334,0.0494125752,-0.2518186569,10.2338752429
1520437772362298387,-0.0142202115,0.0058925663,-0.0172710673,0.0217535178,-0.2158422900,10.1806507571
1520437772367313387,-0.0247815642,0.0073744910,-0.0280621853,0.0433997366,-0.1678783589,10.1373939662
1520437772372331387,-0.0355955800,0.0076900508,-0.0385911830,0.0337791949,-0.1295051161,10.0584243989
1520437772377346387,-0.0433910657,0.0088751181,-0.0469547451,-0.0167286490,-0.1079166548,10.0437870918
1520437772382361387,-0.0504347209,0.0091892410,-0.0564085601,-0.0299568939,-0.0455603225,10.0275850264
1520437772387377387,-0.0577295417,0.0100882197,-0.0666690999,0.0397920335,-0.0383709122,9.9920347985
1520437772392393387,-0.0607491617,0.0121493113,-0.0750348604,0.0746664971,0.0095919886,9.9939728662
1520437772397410387,-0.0655266464,0.0133275474,-0.0804280182,0.1287820442,-0.0036027708,9.9400003795
1520437772402425387,-0.0687972203,0.0130458094,-0.0844823623,0.1985309716,0.0011883586,9.9892889989
1520437772407441387,-0.0695517323,0.0127548580,-0.0847537311,0.2189746227,0.0191738728,10.0099910640
1520437772412457387,-0.0713148308,0.0086696864,-0.0828877660,0.2550516541,0.0431538714,9.9701036311
1520437772417472387,-0.0758390055,0.0066216666,-0.0804600135,0.3260031491,-0.0000207098,10.0368594783
1520437772422487387,-0.0786058135,-0.0001031135,-0.0723896337,0.3320159877,0.0095719453,10.0251701588
1520437772427504387,-0.0806240490,-0.0109077100,-0.0640812313,0.3320159877,-0.0072160206,10.0205379537
1520437772432519387,-0.0838939878,-0.0199725044,-0.0527811519,0.3139774720,-0.0180068795,9.9719140075
1520437772437536387,-0.0851560451,-0.0313697726,-0.0406909533,0.3151800397,-0.0419897816,9.9405478025
1520437772442552387,-0.0846555802,-0.0407288452,-0.0277768224,0.2706850343,-0.0491811588,9.9200693144
1520437772447568387,-0.0891821896,-0.0500862449,-0.0162060866,0.2706850343,-0.0647699843,9.8735987577
1520437772452584387,-0.0937054980,-0.0565276139,-0.0054247576,0.2418234092,-0.0875514045,9.8715776086
1520437772457599387,-0.0954650054,-0.0641370802,0.0066952745,0.2334054352,-0.1067369956,9.8740025413
1520437772462617387,-0.0964642770,-0.0656206202,0.0164256782,0.2201771904,-0.1199265100,9.8160369619
1520437772467630387,-0.0974565977,-0.0621513516,0.0264644203,0.1949232684,-0.1355133687,9.7744607872
1520437772472645387,-0.0961868762,-0.0580969710,0.0359623162,0.1468205599,-0.1223190776,9.7679432630
1520437772477662387,-0.0979353711,-0.0525715522,0.0397954645,0.1083383931,-0.0899392891,9.7845562680
1520437772482677387,-0.0999258853,-0.0415157533,0.0458356852,0.0866921743,-0.1151195521,9.7975750986
1520437772487694387,-0.1024198282,-0.0292866005,0.0489097269,0.0650459554,-0.1031264620,9.7187483074
1520437772492710387,-0.1008933388,-0.0161766198,0.0500891490,0.0602356846,-0.1295071766,9.6886051102
1520437772497725387,-0.0988612604,-0.0010274788,0.0515537451,0.0650459554,-0.1367023938,9.6595117072
1520437772502742387,-0.0993430054,0.0138307498,0.0524796936,0.0638433877,-0.1462954235,9.6083984330
1520437772507757387,-0.0990708068,0.0298599110,0.0515193130,0.0181458146,-0.1882617793,9.5937762806
1520437772512772387,-0.0975438312,0.0441390720,0.0513548979,0.0181458146,-0.2014523239,9.6158698785
1520437772517789387,-0.0909932117,0.0563790536,0.0517066786,0.0975152837,-0.2038567863,9.6522882900
1520437772522804387,-0.0899785055,0.0662996331,0.0469105705,0.1251743411,-0.1834735533,9.6589720586
1520437772527821387,-0.0864444834,0.0779563926,0.0469929597,0.1408077214,-0.1774790688,9.6390575990
1520437772532836387,-0.0849287712,0.0837846738,0.0470346211,0.1973284039,-0.1654920666,9.6117664570
1520437772537853387,-0.0808987495,0.0910730476,0.0462710930,0.2610644926,-0.1523064859,9.6413489691
1520437772542868387,-0.0781228501,0.0986457577,0.0479470346,0.2682798989,-0.1115362734,9.6516982768
1520437772547884387,-0.0753557560,0.0974667340,0.0533439262,0.2586593572,-0.0971458391,9.6854800598
1520437772552899387,-0.0710797633,0.0992116159,0.0552431517,0.2478362478,-0.0707639068,9.7134511348
1520437772557915387,-0.0685677865,0.0986305598,0.0549634924,0.2285951644,-0.0227967913,9.7112673542
1520437772562930387,-0.0663034625,0.0986227048,0.0582058427,0.2694824666,0.0455510284,9.6596683960
1520437772567947387,-0.0632884059,0.0977475474,0.0590052104,0.2610644926,0.0347594202,9.7085709015
1520437772572963387,-0.0612767450,0.0965733273,0.0625096809,0.2237848935,0.0731348172,9.7274906426
1520437772577978387,-0.0580107384,0.0965775209,0.0614214300,0.1877078622,0.1211032439,9.7336057405
1520437772582994387,-0.0560051816,0.0951308556,0.0578894841,0.1528333985,0.1438896281,9.7443822653
1520437772588010387,-0.0534948670,0.0968969012,0.0516755998,0.1780873205,0.1918532782,9.7161982307
1520437772593026387,-0.0547590922,0.0957512669,0.0440937560,0.1720744819,0.1894554656,9.7255562462
1520437772598041387,-0.0509936909,0.0966443796,0.0376003229,0.1732770496,0.1906545124,9.7569212586
1520437772603059387,-0.0477341412,0.0957919020,0.0300123011,0.1901129976,0.1858566395,9.7741942245
1520437772608074387,-0.0464910470,0.0929098716,0.0183542631,0.1227692057,0.2170395354,9.8433857981
1520437772613089387,-0.0429878902,0.0891560305,0.0061442636,0.1576436693,0.1954522917,9.8802560061
1520437772618105387,-0.0397297832,0.0906499262,-0.0071074373,0.1287820442,0.1954545395,9.9711841559
1520437772623121387,-0.0344641475,0.0892271221,-0.0190323733,0.1480231276,0.2362238153,10.0000107163
1520437772628137387,-0.0297044574,0.0837174534,-0.0282820402,0.1913155653,0.2002462309,10.0658666199
1520437772633151387,-0.0299749192,0.0767561772,-0.0402389469,0.1997335393,0.1606739413,10.0890661518
1520437772638168387,-0.0284848033,0.0671563756,-0.0459965729,0.2081515133,0.2038423409,10.1110228553
1520437772643185387,-0.0269962713,0.0563910359,-0.0517630912,0.2454311124,0.1990428758,10.1327454110
1520437772648199387,-0.0292793309,0.0450458209,-0.0591503302,0.2514439509,0.1462802288,10.0990361620
1520437772653216387,-0.0310581738,0.0316465424,-0.0611431463,0.2634696281,0.0983136753,10.0943173092
1520437772658232387,-0.0320880089,0.0127025122,-0.0599330505,0.2598619249,0.0371577947,10.1071956442
1520437772663246387,-0.0346196584,-0.0036276608,-0.0557241417,0.2394182738,0.0047825955,10.1062640583
1520437772668263387,-0.0376523256,-0.0202559711,-0.0490816095,0.2442285447,-0.0575730812,9.9912257923
1520437772673278387,-0.0396771552,-0.0339656717,-0.0440419887,0.1913155653,-0.1151277005,9.9894726551
1520437772678295387,-0.0406941510,-0.0462202412,-0.0381814817,0.1384025859,-0.1355089666,9.9028467598
1520437772683309387,-0.0439683473,-0.0546855126,-0.0330995117,0.1035281222,-0.1570907781,9.8497486327
1520437772688326387,-0.0477425461,-0.0614034022,-0.0277327239,0.0530202783,-0.1834679337,9.8467795386
1520437772693342387,-0.0482497698,-0.0672422161,-0.0237180637,0.0325766272,-0.1654792351,9.7830430670
1520437772698359387,-0.0500127781,-0.0704495919,-0.0231981588,-0.0419825710,-0.1726682708,9.7582086296
1520437772703374387,-0.0505130000,-0.0687014817,-0.0231838869,-0.0732493316,-0.1546787293,9.7736032923
1520437772708390387,-0.0502590118,-0.0646125302,-0.0266703270,-0.1237571755,-0.0791289489,9.7135897507
1520437772713404387,-0.0520093414,-0.0555686442,-0.0309268787,-0.1117314984,-0.0563462174,9.7355312178
1520437772718421387,-0.0489922892,-0.0491329649,-0.0398115860,-0.1045160921,0.0024111014,9.7144850987
1520437772723436387,-0.0492372840,-0.0397876340,-0.0475858116,-0.1285674464,0.0395863277,9.6914400712
1520437772728453387,-0.0484776087,-0.0298547696,-0.0569807332,-0.1285674464,0.0851536638,9.7041792198
1520437772733468387,-0.0447011126,-0.0178759330,-0.0682595152,-0.1093263629,0.1247237992,9.7446283891
1520437772738484387,-0.0394215280,-0.0082224829,-0.0814527034,-0.1309725818,0.1427125914,9.7750372829
1520437772743501387,-0.0333928886,-0.0029431475,-0.0933279087,-0.1129340661,0.1750879780,9.7852894305
1520437772748516387,-0.0263626999,0.0017632822,-0.1087265236,-0.0780596024,0.1714878405,9.8488714093
1520437772753532387,-0.0200869370,0.0055930777,-0.1233187700,-0.0600210867,0.2338417377,9.8625807553
1520437772758548387,-0.0105494838,0.0044655172,-0.1360610549,0.0097278406,0.2170483395,9.8142703306
1520437772763563387,-0.0007569094,0.0042034675,-0.1455505866,0.0818819034,0.1870642093,9.8449751475
1520437772768579387,0.0112953276,0.0013147442,-0.1531705052,0.1359974505,0.1330986755,9.9142296775
1520437772773595387,0.0215805065,-0.0085729960,-0.1589466896,0.1853027267,0.0947223419,9.9393543560
1520437772778610387,0.0368991814,-0.0143859396,-0.1622661722,0.1853027267,0.0767352356,9.9045075775
1520437772783626387,0.0489499168,-0.0204893623,-0.1663934481,0.1564411016,0.0095856197,9.9280968609
1520437772788643387,0.0615036890,-0.0265940450,-0.1699805657,0.1600488048,-0.0539691037,9.9083672735
1520437772793659387,0.0768220973,-0.0335768973,-0.1716856653,0.1335923151,-0.0755515708,9.9039972570
1520437772798674387,0.0893764850,-0.0393909239,-0.1750000139,0.0999204191,-0.1307094078,9.8764873333
1520437772803690387,0.0999221992,-0.0434552457,-0.1791089279,0.1131486640,-0.1786760550,9.9089453820
1520437772808706387,0.1119809362,-0.0457801392,-0.1796902071,0.0554254137,-0.2086500699,9.9153471779
1520437772813720387,0.1205209212,-0.0472264300,-0.1824226501,0.0145381115,-0.2266339918,9.8750876515
1520437772818738387,0.1250424536,-0.0480966261,-0.1832493580,-0.0119183782,-0.2518138802,9.8788561508
1520437772823753387,0.1318294979,-0.0481005237,-0.1808270465,-0.0395774356,-0.2614048494,9.8942425932
1520437772828769387,0.1358533135,-0.0463528265,-0.1800095379,-0.0828698733,-0.2673971798,9.8900212461
1520437772833784387,0.1346002066,-0.0440229710,-0.1797188737,-0.1189469046,-0.2757883529,9.8659755601
1520437772838800387,0.1328519743,-0.0387911220,-0.1750763108,-0.1285674464,-0.3081643951,9.8939922276
1520437772843817387,0.1296039546,-0.0283178560,-0.1693087485,-0.1862906966,-0.2733848271,9.9073037430
1520437772848831387,0.1205708711,-0.0213420120,-0.1640982204,-0.2440139468,-0.2601897868,9.8776369802
1520437772853849387,0.1070165179,-0.0137895416,-0.1572515698,-0.2091394831,-0.2266165711,9.8482111932
1520437772858864387,0.0987383424,-0.0062313616,-0.1517674498,-0.2957243585,-0.1930338957,9.8583183674
1520437772863879387,0.0856848736,0.0010342917,-0.1465472310,-0.3378142284,-0.1894331963,9.8226980738
1520437772868895387,0.0708739831,0.0088791112,-0.1402371154,-0.3871195046,-0.1198792117,9.8114887199
1520437772873911387,0.0550512601,0.0141112741,-0.1377327833,-0.3967400463,-0.1210776029,9.7895027945
1520437772878927387,0.0382262820,0.0187478908,-0.1306317501,-0.3702835567,-0.0970968549,9.7903840404
1520437772883941387,0.0196372842,0.0195950910,-0.1232858042,-0.3558527441,-0.1114876639,9.8065276272
1520437772888958387,0.0010507484,0.0216049156,-0.1148487823,-0.2800909782,-0.1330780921,9.7349204755
1520437772893975387,-0.0172890206,0.0201174960,-0.1061683582,-0.2464190822,-0.1342798550,9.6706759858
1520437772898990387,-0.0341223178,0.0171715591,-0.0966902123,-0.2560396239,-0.1594610546,9.6545241670
1520437772904006387,-0.0491973151,0.0136435423,-0.0872197795,-0.1898983997,-0.1474748017,9.6236529527
1520437772909022387,-0.0670356743,0.0112821660,-0.0785469582,-0.1442008266,-0.1618680459,9.5604664191
1520437772914037387,-0.0826180209,0.0042573380,-0.0691022691,-0.1309725818,-0.1402845485,9.5614787594
1520437772919054387,-0.0964428555,-0.0024688604,-0.0620935369,-0.1057186598,-0.1258968303,9.5705160727
1520437772924070387,-0.1090096161,-0.0094925069,-0.0526544485,-0.0696416284,-0.1031159720,9.5376026729
1520437772929085387,-0.1205717106,-0.0173920985,-0.0424122585,-0.0191337845,-0.0959250632,9.4789968468
1520437772934099387,-0.1283625193,-0.0241254036,-0.0318976311,-0.0552108159,-0.0755368662,9.4944359911
1520437772939117387,-0.1321346598,-0.0328990103,-0.0205943951,-0.0323620293,-0.0227764671,9.4592978255
1520437772944133387,-0.1366610418,-0.0393301813,-0.0136007087,-0.1045160921,-0.0335631113,9.3972548794
1520437772949149387,-0.1401825813,-0.0463451844,-0.0060722435,-0.1261623109,0.0036119277,9.3544299946
1520437772954165387,-0.1369153124,-0.0504429555,0.0011953051,-0.1309725818,0.0048114427,9.3428542059
1520437772959180387,-0.1323929489,-0.0524867025,0.0033357096,-0.1634419100,0.0156062354,9.2862146646
1520437772964195387,-0.1256081941,-0.0548245900,0.0068224200,-0.1862906966,0.0335951213,9.2376094745
1520437772969211387,-0.1190778589,-0.0583230151,0.0084068836,-0.1886958320,0.0347944490,9.2109024044
1520437772974227387,-0.1127907228,-0.0542382566,0.0073441551,-0.2452165145,0.0371971319,9.1928559001
1520437772979243387,-0.1042457276,-0.0539449814,0.0078716014,-0.2343934051,0.0383954293,9.2008843929
1520437772984258387,-0.0956979175,-0.0519048560,0.0089534780,-0.2319882697,0.0168107144,9.1625312804
1520437772989275387,-0.0818737964,-0.0492740664,0.0078656324,-0.1959112383,0.0132104833,9.2051829630
1520437772994291387,-0.0730720922,-0.0454862638,0.0092309267,-0.2091394831,-0.0035764523,9.1844094982
1520437772999307387,-0.0627641318,-0.0416927714,0.0086995993,-0.2211651602,-0.0035755157,9.1949858444
1520437773004323387,-0.0542176821,-0.0393554340,0.0076193318,-0.2223677280,-0.0491427582,9.1869069766
1520437773009337387,-0.0461710622,-0.0364420803,0.0089793570,-0.2740781396,-0.0587318542,9.2153111037
1520437773014353387,-0.0368701005,-0.0338137914,0.0081704583,-0.3005346293,-0.0611280745,9.2283545371
1520437773019370387,-0.0310884240,-0.0326467172,0.0084391619,-0.3281936867,-0.1018966947,9.2937435724
1520437773024385387,-0.0265635906,-0.0306008827,0.0068230472,-0.3570553118,-0.0970978852,9.2975062482
1520437773029401387,-0.0240401348,-0.0241952660,0.0090316550,-0.3714861244,-0.1150838676,9.2604756425
1520437773034416387,-0.0237912510,-0.0241871548,0.0060551834,-0.4292093746,-0.1534518655,9.2715341996
1520437773039433387,-0.0230370879,-0.0230169508,0.0044394002,-0.5013634374,-0.1210694545,9.3117178253
1520437773044449387,-0.0247981124,-0.0233039255,0.0025466229,-0.5458584427,-0.0862909168,9.3132791455
1520437773049464387,-0.0263057251,-0.0215489247,-0.0001426972,-0.5939611513,-0.0503129577,9.3846030488
1520437773054480387,-0.0278153606,-0.0209580052,-0.0033820015,-0.5879483127,-0.0359237409,9.3740711958
1520437773059496387,-0.0293274190,-0.0232860300,-0.0047497153,-0.6276330472,-0.0083404204,9.3837277195
1520437773064511387,-0.0290755478,-0.0227024341,-0.0050162817,-0.6432664275,0.0228384482,9.3977952099
1520437773069528387,-0.0336049445,-0.0235623344,-0.0109665597,-0.6396587244,0.0576132395,9.4116719113
1520437773074544387,-0.0316032572,-0.0270450493,-0.0158667966,-0.6817485943,0.1211709601,9.4492082199
1520437773079559387,-0.0288475440,-0.0314059930,-0.0191518276,-0.6240253441,0.1607380984,9.4962556911
1520437773084574387,-0.0235803793,-0.0357608532,-0.0243353471,-0.6144048024,0.1859192980,9.5472718285
1520437773089591387,-0.0195646123,-0.0389623224,-0.0251789063,-0.5687072293,0.2063011261,9.6455893937
1520437773094607387,-0.0115275347,-0.0412858775,-0.0268349015,-0.5157942499,0.2314789539,9.6682926942
1520437773099622387,-0.0034958712,-0.0485673401,-0.0269054138,-0.4737043800,0.2410687992,9.7922230656
1520437773104638387,0.0090629034,-0.0558594138,-0.0223850468,-0.3991451818,0.2266733072,9.9112122114
1520437773109655387,0.0191049497,-0.0660670458,-0.0176116976,-0.3594604472,0.2230727952,9.9433694833
1520437773114669387,0.0314047689,-0.0794804783,-0.0123259111,-0.3486373378,0.2278685139,9.9792859230
1520437773119686387,0.0429527616,-0.0905594879,-0.0083736691,-0.2752807073,0.2122739752,10.0750450642
1520437773124701387,0.0529888684,-0.1051378878,-0.0036336662,-0.2211651602,0.1619058627,10.1442960862
1520437773129717387,0.0678034754,-0.1188490046,0.0043506890,-0.1742650194,0.1043434696,10.1996786270
1520437773134732387,0.0788511051,-0.1316918153,0.0139719897,-0.1478085298,0.0335921241,10.2320301375
1520437773139750387,0.0934123001,-0.1474449076,0.0227528877,-0.1285674464,-0.0119767105,10.2737244739
1520437773144765387,0.1009493557,-0.1553384734,0.0335006985,-0.0900852795,-0.0599453246,10.2757209736
1520437773149781387,0.1064798509,-0.1594404574,0.0426578679,-0.0804647378,-0.1258987971,10.2466380479
1520437773154796387,0.1132698746,-0.1617958273,0.0526376798,-0.0876801441,-0.2134354861,10.1840378665
1520437773159812387,0.1168008936,-0.1565684666,0.0597053545,-0.0828698733,-0.2709946011,10.1991550459
1520437773164827387,0.1185782741,-0.1481402075,0.0681534797,-0.1357828526,-0.3669217139,10.1683857288
1520437773169844387,0.1180926087,-0.1379521440,0.0720198637,-0.1369854203,-0.4016966925,10.1010269954
1520437773174860387,0.1120830814,-0.1225133123,0.0729605262,-0.2127471863,-0.4604486727,10.1018217115
1520437773179876387,0.1023042481,-0.1067838444,0.0736398668,-0.2235702957,-0.5443876594,10.0857388954
1520437773184891387,0.0912702066,-0.0863759625,0.0681345548,-0.2043292123,-0.5863590728,10.0925654051
1520437773189907387,0.0769705074,-0.0668515268,0.0656046458,-0.2223677280,-0.6079421955,10.0532491346
1520437773194922387,0.0579006585,-0.0452950976,0.0652635333,-0.1814804257,-0.5839625714,10.0609627836
1520437773199938387,0.0403371559,-0.0228551828,0.0616797389,-0.1393905558,-0.5863641304,10.0384747102
1520437773204954387,0.0207609340,-0.0009937258,0.0562014109,-0.1417956912,-0.5863639431,10.0350116884
1520437773209971387,0.0009363536,0.0202724805,0.0553183837,-0.1153392015,-0.5312055441,10.0544568348
1520437773214985387,-0.0241680976,0.0397890404,0.0541612733,-0.0888827118,-0.4616574601,10.0390236305
1520437773220001387,-0.0470063313,0.0613403507,0.0551798911,-0.0155260813,-0.4376803649,10.0743126978
1520437773225017387,-0.0695943677,0.0814319230,0.0572691103,0.0578305492,-0.3741316357,10.1014281693
1520437773230033387,-0.0931891912,0.0974306064,0.0641988994,0.0385894657,-0.3345585032,10.1283061730
1520437773235049387,-0.1147642582,0.1183748733,0.0744092979,0.0313740595,-0.2817957626,10.1968914457
1520437773240065387,-0.1375941923,0.1401913446,0.0851697911,0.0421971689,-0.2446232524,10.1583991002
1520437773245082387,-0.1591743167,0.1582254083,0.0940052292,-0.0227414876,-0.2110422629,10.0683512033
1520437773250096387,-0.1774897595,0.1733410792,0.1049767363,-0.1009083890,-0.1702654006,10.0493158272
1520437773255114387,-0.1973121563,0.1902095656,0.1140705610,-0.1610367746,-0.0587406582,9.9440372316
1520437773260129387,-0.2141176460,0.2085383413,0.1223582627,-0.2428113791,-0.0023746894,9.8204288134
1520437773265143387,-0.2274017373,0.2303702088,0.1287722860,-0.3077500356,0.1055530063,9.7303084175
1520437773270160387,-0.2386732347,0.2551225367,0.1330404392,-0.3967400463,0.1942963285,9.6299815366
1520437773275175387,-0.2441688579,0.2787196036,0.1343129606,-0.4207914006,0.2398655378,9.6057661798
1520437773280192387,-0.2443823639,0.3066931482,0.1342562977,-0.4568684320,0.2674485773,9.5200917840
1520437773285206387,-0.2400760547,0.3320460043,0.1341712259,-0.4280068069,0.2566540657,9.5221456746
1520437773290223387,-0.2327551239,0.3579886383,0.1319206324,-0.4147785620,0.2434624907,9.5557319564
1520437773295239387,-0.2219212002,0.3804374932,0.1290957361,-0.3486373378,0.2086822672,9.6539043253
1520437773300254387,-0.2058114986,0.4011371948,0.1273298836,-0.2740781396,0.1343297540,9.7601683546
1520437773305270387,-0.1846871700,0.4139736686,0.1246830356,-0.1911009674,0.0707688490,9.8442591893
1520437773310286387,-0.1650818508,0.4195293091,0.1203601355,-0.1466059620,0.0299946092,9.9159187850
1520437773315301387,-0.1474893920,0.4209945805,0.1197974885,-0.1550239360,-0.0383557393,9.9520938353
1520437773320318387,-0.1256381355,0.4143100431,0.1164592018,-0.1598342069,-0.1282908964,9.9743090911
1520437773325333387,-0.1048088772,0.3965583274,0.1108739377,-0.1718598840,-0.2098315086,9.9675327930
1520437773330349387,-0.0860008299,0.3718169660,0.1036157779,-0.2019240768,-0.2685870479,9.8981540798
1520437773335365387,-0.0679548139,0.3427118255,0.0936202130,-0.2428113791,-0.3105537783,9.8521072204
1520437773340381387,-0.0499115657,0.3130304720,0.0811852889,-0.2704704365,-0.3285387304,9.7908003472
1520437773345397387,-0.0336302634,0.2833578988,0.0652365353,-0.2380011082,-0.3105541529,9.7637374596
1520437773350412387,-0.0155875405,0.2542636848,0.0511827820,-0.1814804257,-0.2673894997,9.6655251336
1520437773355428387,0.0039616110,0.2240037951,0.0373878819,-0.1033135244,-0.2637981663,9.6775443804
1520437773360444387,0.0227581833,0.1937392394,0.0252176573,-0.0035004042,-0.2386239912,9.7137369111
1520437773365459387,0.0415557632,0.1625932458,0.0157462225,0.1372000182,-0.2278426856,9.6461146901
1520437773370476387,0.0616152003,0.1337715364,0.0089956977,0.3175851752,-0.2230601729,9.6420299664
1520437773375492387,0.0794196714,0.1069755208,0.0071347611,0.4222085662,-0.2638390957,9.6433756719
1520437773380508387,0.0987406388,0.0836635985,0.0101675274,0.5424653375,-0.3058183765,9.6759482678
1520437773385523387,0.1200712009,0.0583062163,0.0156159113,0.6987991402,-0.3442030459,9.7279226512
1520437773390538387,0.1373861175,0.0323448221,0.0283720558,0.8010173958,-0.3837826409,9.7699656359
1520437773395555387,0.1549556732,0.0075432370,0.0433009931,0.9104510576,-0.4473456064,9.7805838903
1520437773400571387,0.1692623467,-0.0146386241,0.0587970973,0.9705794433,-0.5576712084,9.8416998463
1520437773405587387,0.1808078068,-0.0368317662,0.0780859781,1.0054539070,-0.6428128946,9.8240112634
1520437773410603387,0.1901004610,-0.0537867004,0.0995834420,0.9994410684,-0.7315488176,9.8473991989
1520437773415617387,0.1906000360,-0.0675332949,0.1186867822,0.9765922819,-0.8142877273,9.9011609013
1520437773420635387,0.1896014072,-0.0748729342,0.1389240141,0.9152613285,-0.8742399718,9.8808977349
1520437773425650387,0.1858404751,-0.0792932554,0.1567536978,0.8755765940,-0.9545792894,9.8395251652
1520437773430666387,0.1778109835,-0.0807999482,0.1740724549,0.8310815886,-1.0181302664,9.8132909163
1520437773435679387,0.1667720727,-0.0750108260,0.1868531095,0.7673454998,-1.0792814640,9.7558637229
1520437773440698387,0.1524763958,-0.0619390989,0.1999659546,0.7204453590,-1.1080571815,9.7075382381
1520437773445713387,0.1364237872,-0.0456555469,0.2104010617,0.6591144056,-1.0948618601,9.6569879993
1520437773450728387,0.1153500908,-0.0238289169,0.2176411912,0.6398733222,-1.0996569233,9.6083699115
1520437773455745387,0.0955327160,-0.0008304290,0.2227235122,0.6458861608,-1.1068522341,9.5804269473
1520437773460760387,0.0739608285,0.0268353497,0.2256803024,0.6398733222,-1.1320337147,9.5293756948
1520437773465775387,0.0496288801,0.0585837992,0.2270500745,0.6410758899,-1.0936613148,9.5037594038
1520437773470793387,0.0230344582,0.0926755507,0.2235720056,0.6326579159,-1.0684787103,9.4840603359
1520437773475808387,-0.0013000346,0.1253105371,0.2203491666,0.6086065617,-1.0444940286,9.4459202998
1520437773480822387,-0.0266394560,0.1591150385,0.2155138116,0.5725295303,-1.0444912188,9.4125692768
1520437773485840387,-0.0527412107,0.1906056506,0.2041689705,0.6086065617,-1.0852648030,9.4087714508
1520437773490855387,-0.0780969841,0.2177323460,0.1903544699,0.5653141240,-1.0552829207,9.3998664477
1520437773495871387,-0.0989350554,0.2401964759,0.1773076366,0.5881629106,-1.0636786832,9.3520043348
1520437773500887387,-0.1175247196,0.2545100095,0.1614888974,0.5725295303,-1.0121144274,9.3741869541
1520437773505903387,-0.1348633861,0.2659152891,0.1437517725,0.5869603429,-1.0169121130,9.3984561938
1520437773510918387,-0.1491978593,0.2697493946,0.1245985172,0.5340473635,-1.0241028345,9.4280318312
1520437773515933387,-0.1597723963,0.2668845896,0.1048460384,0.4955651967,-0.9725367992,9.4550854224
1520437773520950387,-0.1685929459,0.2599396336,0.0856002610,0.4823369518,-0.9449555392,9.4331065481
1520437773525966387,-0.1708903267,0.2460076510,0.0649362654,0.4414496496,-0.9293635293,9.4451107581
1520437773530980387,-0.1706824973,0.2297608737,0.0385683540,0.3921443734,-0.9233639871,9.4781248495
1520437773535997387,-0.1651942758,0.2132131246,0.0165171526,0.3608776128,-0.8825907775,9.5051187343
1520437773541013387,-0.1599636885,0.1920031246,-0.0055691514,0.3765109931,-0.8885876972,9.4759188164
1520437773546029387,-0.1492074320,0.1681706446,-0.0268740933,0.3837263994,-0.9017788038,9.4154299632
1520437773551044387,-0.1344361533,0.1417245634,-0.0509119696,0.3464468003,-0.9101698833,9.3937202702
1520437773556060387,-0.1158902094,0.1158481595,-0.0695414827,0.3151800397,-0.8969769035,9.4439839290
1520437773561076387,-0.0973504676,0.0858945575,-0.0890137566,0.3296108523,-0.8741943594,9.4240648036
1520437773566091387,-0.0767940429,0.0608967370,-0.1089930636,0.3091672012,-0.9005738565,9.4056952118
1520437773571108387,-0.0496985326,0.0370546311,-0.1243763329,0.3272057169,-0.9281554911,9.3648714923
1520437773576125387,-0.0226044729,0.0126319414,-0.1405756860,0.2947363886,-0.9317503836,9.3361374380
1520437773581138387,0.0022323393,-0.0091720873,-0.1556686473,0.2454311124,-0.9341448244,9.3075660852
1520437773586156387,0.0313433407,-0.0303960438,-0.1691418213,0.2129617841,-0.9653199466,9.2928046531
1520437773591172387,0.0571911934,-0.0501701851,-0.1804334454,0.1792898882,-0.9893001326,9.2954800694
1520437773596187387,0.0832848055,-0.0725601328,-0.1941804570,0.1780873205,-1.0276725324,9.2769348900
1520437773601203387,0.1098797803,-0.0969946742,-0.2060501423,0.2045438101,-1.0468608397,9.2848310959
1520437773606218387,0.1314613983,-0.1147409956,-0.2135306279,0.2165694873,-1.0816368486,9.2696400848
1520437773611234387,0.1535422737,-0.1336468307,-0.2231853065,0.2646721958,-1.1152165269,9.2715289119
1520437773616250387,0.1723628977,-0.1514051615,-0.2266024697,0.3055594980,-1.1535922049,9.2955733819
1520437773621267387,0.1871668255,-0.1685932250,-0.2259495307,0.3404339617,-1.1631880444,9.3521883437
1520437773626282387,0.2024796393,-0.1822895764,-0.2233770268,0.3596750451,-1.1523972791,9.3670984102
1520437773631296387,0.2135198437,-0.1968639403,-0.2199916203,0.3608776128,-1.1595922153,9.4007958958
1520437773636314387,0.2265838544,-0.2027010798,-0.2146494337,0.3741058577,-1.1619915264,9.4773709799
1520437773641329387,0.2323624455,-0.2059142431,-0.2108969797,0.3464468003,-1.1452014063,9.5055152803
1520437773646345387,0.2321224414,-0.2021467388,-0.2032923278,0.3248005814,-1.1044289461,9.4975512061
1520437773651361387,0.2346448778,-0.1992501197,-0.1965111168,0.3211928783,-1.0768484353,9.5440451846
1520437773656376387,0.2346600420,-0.1934464674,-0.1875386405,0.2995466595,-1.0612579240,9.5744564171
1520437773661392387,0.2293963939,-0.1876397836,-0.1804501843,0.3211928783,-1.0060991504,9.5648947848
1520437773666408387,0.2246446231,-0.1763024244,-0.1711560558,0.3211928783,-0.9821163419,9.6508700506
1520437773671425387,0.2161261337,-0.1658538073,-0.1569917695,0.3380288263,-0.9533382830,9.6681102750
1520437773676441387,0.2020759965,-0.1553971582,-0.1466048579,0.3404339617,-0.9065719938,9.7145270188
1520437773681454387,0.1892803266,-0.1475675766,-0.1343464664,0.3656878837,-0.9089722415,9.7933093402
1520437773686472387,0.1749847319,-0.1365450108,-0.1177320863,0.3861315348,-0.8873893061,9.7954135941
1520437773691487387,0.1589251645,-0.1281412244,-0.1027577223,0.4125880245,-0.8801965241,9.8439591129
1520437773696503387,0.1398522067,-0.1197459038,-0.0850722986,0.4089803213,-0.8394254687,9.8602244859
1520437773701519387,0.1207774964,-0.1098812771,-0.0719750397,0.4955651967,-0.8250425271,9.8489083941
1520437773706534387,0.1029564222,-0.1014701672,-0.0599734135,0.4775266810,-0.7830712074,9.8536916189
1520437773711550387,0.0851339368,-0.0953959608,-0.0458252047,0.4727164101,-0.7590880243,9.9025250984
1520437773716565387,0.0660505663,-0.0893076782,-0.0370855803,0.4907549258,-0.7482971654,9.9104740062
1520437773721582387,0.0494800900,-0.0855596852,-0.0245807653,0.5087934415,-0.7063286555,9.9032846398
1520437773726598387,0.0359231846,-0.0800476350,-0.0174791303,0.4931600612,-0.7183188421,9.9220428022
1520437773731613387,0.0201032725,-0.0745321003,-0.0119965702,0.5015780352,-0.7027306722,9.9196213775
1520437773736629387,0.0057865822,-0.0707569977,-0.0092356079,0.4919574935,-0.7075264846,9.9441247183
1520437773741645387,-0.0060134700,-0.0649441326,-0.0053815676,0.4703112747,-0.6751480073,9.9257095339
1520437773746661387,-0.0163136876,-0.0632020474,-0.0045374558,0.4943626290,-0.6739507401,9.9312849832
1520437773751676387,-0.0241049157,-0.0626165031,-0.0066829084,0.5027806029,-0.7099256084,9.9021845291
1520437773756693387,-0.0293862370,-0.0649467331,-0.0077730754,0.5244268218,-0.7039315922,9.8322393542
1520437773761709387,-0.0326527728,-0.0658272656,-0.0058798560,0.5111985769,-0.7315107917,9.7684770871
1520437773766723387,-0.0319073640,-0.0707746798,-0.0080834158,0.4847420873,-0.7399027141,9.7373648969
1520437773771740387,-0.0341773256,-0.0771874824,-0.0075870314,0.4630958684,-0.7363036070,9.7282749283
1520437773776756387,-0.0321812719,-0.0856273764,-0.0111723313,0.5063883061,-0.7578915063,9.6395516539
1520437773781771387,-0.0306806023,-0.0894082286,-0.0136389448,0.4835395195,-0.7542923055,9.6235005266
1520437773786787387,-0.0269189019,-0.0931860095,-0.0169213965,0.4342342433,-0.7614833080,9.5891231313
1520437773791804387,-0.0213991642,-0.0972523004,-0.0210209761,0.4113854568,-0.7998540220,9.5475457639
1520437773796820387,-0.0158778388,-0.0986895747,-0.0275354609,0.3368262586,-0.8022464960,9.4657615953
1520437773801834387,-0.0075897603,-0.0974996630,-0.0353878014,0.2899261178,-0.8274247921,9.4674047926
1520437773806852387,0.0019515153,-0.0977618111,-0.0448768663,0.2971415240,-0.8430141796,9.4487554604
1520437773811866387,0.0119967097,-0.0965646544,-0.0551673870,0.3127749043,-0.8298248525,9.4451040000
1520437773816883387,0.0210477055,-0.0880869205,-0.0640477341,0.2839132792,-0.7998440941,9.4709228549
1520437773821899387,0.0353786584,-0.0784452231,-0.0715762606,0.3055594980,-0.7674689885,9.4811398873
1520437773826913387,0.0464385551,-0.0687909654,-0.0842390917,0.3175851752,-0.7698682060,9.4845116073
1520437773831929387,0.0582575311,-0.0585682119,-0.0914879589,0.2863184146,-0.7902511580,9.5243487120
1520437773836945387,0.0695736468,-0.0480520855,-0.0995453073,0.2971415240,-0.7782605967,9.5695552873
1520437773841962387,0.0811475692,-0.0340450737,-0.1054120781,0.3019517949,-0.7542781629,9.5927279594
1520437773846977387,0.0884465065,-0.0226643817,-0.1104792848,0.3187877429,-0.7422880699,9.6460110171
1520437773851992387,0.0995122446,-0.0124441089,-0.1169151142,0.3079646335,-0.7015164525,9.7181295302
1520437773857008387,0.1078179100,-0.0025316006,-0.1176665688,0.3440416648,-0.7003201219,9.7805329827
1520437773862024387,0.1103370181,0.0035957433,-0.1203300102,0.3404339617,-0.6667439091,9.8502639936
1520437773867040387,0.1103438357,0.0079635975,-0.1192144803,0.3416365294,-0.6259732284,9.9199411683
1520437773872056387,0.1138669394,0.0088267461,-0.1146150650,0.3272057169,-0.5983918747,9.9804862198
1520437773877071387,0.1131158538,0.0091098225,-0.1116354369,0.3428390971,-0.5840034072,10.0791022581
1520437773882087387,0.1108543329,0.0064740924,-0.1070519639,0.3368262586,-0.5708123942,10.1082015195
1520437773887104387,0.1050744951,0.0032520295,-0.1016547653,0.3187877429,-0.5180488107,10.1443521070
1520437773892119387,0.0995475831,0.0009027617,-0.0957102723,0.3356236908,-0.4880716114,10.2301576553
1520437773897135387,0.0925149011,-0.0002830155,-0.0892129949,0.3175851752,-0.4688839597,10.2570438327
1520437773902151387,0.0829709047,0.0005735566,-0.0840482182,0.3296108523,-0.4341098240,10.3219729327
1520437773907167387,0.0739295021,-0.0000331529,-0.0764605772,0.3031543626,-0.4341077635,10.3512840428
1520437773912183387,0.0676537118,0.0022838070,-0.0721023901,0.2959389563,-0.4149209548,10.3548219956
1520437773917198387,0.0543464351,0.0072161004,-0.0660878516,0.2586593572,-0.4077232088,10.3609885561
1520437773922214387,0.0430494668,0.0141983426,-0.0635785820,0.1985309716,-0.4017228236,10.4429180390
1520437773927231387,0.0342628522,0.0211903106,-0.0643205303,0.1828975913,-0.3861327806,10.4105149726
1520437773932245387,0.0234699360,0.0302168121,-0.0634199079,0.1408077214,-0.4197054343,10.3528501934
1520437773937262387,0.0121727560,0.0401267398,-0.0660287794,0.1143512317,-0.4017162674,10.3530901645
1520437773942277387,0.0016308328,0.0497397510,-0.0664769070,0.1299846119,-0.4065140467,10.3541048201
1520437773947293387,-0.0111721604,0.0611060106,-0.0690718627,0.0662485231,-0.4400850146,10.3780008087
1520437773952310387,-0.0232306661,0.0678206112,-0.0754914305,0.0217535178,-0.4196961620,10.3342525467
1520437773957325387,-0.0352820954,0.0771460177,-0.0775622563,0.0361843303,-0.4400826731,10.3120512297
1520437773962339387,-0.0480983709,0.0803607949,-0.0829249174,0.0337791949,-0.4101039752,10.2574246405
1520437773967356387,-0.0626763336,0.0818273041,-0.0885681958,0.0313740595,-0.4532728431,10.2458687073
1520437773972373387,-0.0752417533,0.0835801581,-0.0920486178,0.0073227052,-0.4280890210,10.2565375479
1520437773977388387,-0.0883092885,0.0850385169,-0.0944481458,0.0145381115,-0.4220938809,10.2053271368
1520437773982403387,-0.0981168859,0.0830088257,-0.0995858772,-0.0022978365,-0.3897157782,10.1810544124
1520437773987420387,-0.1071701516,0.0795144944,-0.1017601194,-0.0263491907,-0.3477439902,10.2068147537
1520437773992435387,-0.1139648877,0.0766169300,-0.1088039420,-0.0119183782,-0.2889872333,10.1903469800
1520437773997451387,-0.1222632807,0.0769247332,-0.1160910562,0.0193483823,-0.2134438218,10.2457518900
1520437774002467387,-0.1237772248,0.0754810600,-0.1212397433,0.0770716326,-0.1379024708,10.2137384921
1520437774007483387,-0.1268019100,0.0717049914,-0.1261328689,0.1287820442,-0.0563649494,10.2422092585
1520437774012500387,-0.1268080180,0.0699690676,-0.1307454876,0.1456179922,0.0179804456,10.3082150941
1520437774017514387,-0.1268205084,0.0624003542,-0.1335087468,0.2406208415,0.0911206123,10.3258133682
1520437774022530387,-0.1250799758,0.0513400862,-0.1379252254,0.3560673420,0.1450729400,10.3687985328
1520437774027546387,-0.1205667194,0.0425944952,-0.1358359518,0.3945495088,0.1762475939,10.3939607351
1520437774032561387,-0.1150481344,0.0344342523,-0.1345557367,0.4029674828,0.2985592614,10.4170024062
1520437774037578387,-0.1057604198,0.0256912603,-0.1327458767,0.4113854568,0.3681087504,10.4796084227
1520437774042593387,-0.0957167897,0.0166491664,-0.1279636352,0.4727164101,0.4508446629,10.5254165386
1520437774047609387,-0.0856764136,0.0058616791,-0.1242769157,0.5003754675,0.5012064065,10.5192874902
1520437774052625387,-0.0766369673,-0.0025987680,-0.1192178152,0.4931600612,0.5851467981,10.5262487306
1520437774057640387,-0.0658253233,-0.0031991564,-0.1111259536,0.4390445142,0.6582985787,10.5429741438
1520437774062656387,-0.0560192667,-0.0026278446,-0.1054582458,0.4089803213,0.6966734137,10.5176621843
1520437774067672387,-0.0502291065,0.0020234605,-0.1005635850,0.3753084254,0.7194597042,10.5063462689
1520437774072689387,-0.0434370049,0.0049297661,-0.0967663131,0.3584724774,0.7062704708,10.5111715782
1520437774077704387,-0.0404059412,0.0130751457,-0.0912987495,0.3332185554,0.6894844718,10.4393808300
1520437774082719387,-0.0386278040,0.0253059723,-0.0882326421,0.3139774720,0.6595074597,10.3977601621
1520437774087736387,-0.0383633992,0.0331654402,-0.0851970807,0.2754953052,0.5911594527,10.3063920038
1520437774092751387,-0.0463876767,0.0439347760,-0.0818533406,0.2562542218,0.5264073684,10.2380759357
1520437774097768387,-0.0559186023,0.0558705160,-0.0790389997,0.2310002998,0.4700497354,10.1535401922
1520437774102783387,-0.0712363049,0.0640218201,-0.0784071914,0.1961258361,0.3957057453,10.0633049094
1520437774107799387,-0.0855511448,0.0701323695,-0.0772517198,0.1985309716,0.3645279069,9.9738268177
1520437774112814387,-0.1031421490,0.0707111604,-0.0782967865,0.2261900290,0.2913781869,9.8434688082
1520437774117831387,-0.1199778024,0.0733343089,-0.0809509673,0.2033412424,0.2877825452,9.7913982344
1520437774122846387,-0.1405851375,0.0744997864,-0.0838798085,0.1744796173,0.2685985462,9.7382392432
1520437774127861387,-0.1571716913,0.0756668392,-0.0868161173,0.2237848935,0.2122351063,9.6785449532
1520437774132877387,-0.1722545411,0.0747991616,-0.0913940633,0.2478362478,0.1714624587,9.6062976845
1520437774137893387,-0.1875914576,0.0733551724,-0.0984109019,0.3055594980,0.1702588226,9.5360083738
1520437774142909387,-0.1981571228,0.0713390259,-0.1086876052,0.3789161285,0.1714522498,9.4981045895
1520437774147925387,-0.2082109146,0.0733900765,-0.1143348385,0.4354368110,0.1558590222,9.5301096840
1520437774152942387,-0.2124913020,0.0701962847,-0.1192211843,0.4919574935,0.1630494628,9.4296081502
1520437774157957387,-0.2132577712,0.0646764372,-0.1254845783,0.5340473635,0.1858298527,9.3617719065
1520437774162972387,-0.2102510179,0.0620726403,-0.1320032883,0.5785423689,0.2265971617,9.3857040849
1520437774167988387,-0.2029762344,0.0556788761,-0.1372061031,0.6086065617,0.2146034159,9.3366131058
1520437774173005387,-0.1916837078,0.0460770868,-0.1408175642,0.6675323796,0.2589670223,9.2778890948
1520437774178020387,-0.1756151824,0.0379362761,-0.1452384152,0.6506964316,0.2805528611,9.2919776449
1520437774183035387,-0.1555266284,0.0274579517,-0.1467085136,0.6759503536,0.2925422985,9.2463965311
1520437774188053387,-0.1321652110,0.0195953552,-0.1451886668,0.7805737446,0.2925341501,9.2209731682
1520437774193067387,-0.1037718855,0.0131785388,-0.1387972129,0.7889917186,0.2793429498,9.2511198383
1520437774198084387,-0.0721089074,0.0073392154,-0.1299724672,0.7877891509,0.3093215541,9.2766694769
1520437774203098387,-0.0364188988,0.0067493025,-0.1221973570,0.7637377967,0.3225139719,9.2803771471
1520437774208115387,0.0002800411,0.0076108787,-0.1122486312,0.7649403644,0.3476958272,9.3210159244
1520437774213129387,0.0377328306,0.0073021130,-0.1004163767,0.7024068433,0.3788783485,9.3936471096
1520437774218147387,0.0756870298,0.0061193907,-0.0885917248,0.7252556298,0.4184482029,9.5084383768
1520437774223163387,0.1118840268,0.0055151062,-0.0754066302,0.7300659007,0.4640151644,9.5966700622
1520437774228178387,0.1498396686,0.0019860106,-0.0579182992,0.7324710361,0.5083831727,9.7256013655
1520437774233193387,0.1795068871,-0.0003902655,-0.0368885774,0.7420915778,0.5095815639,9.8440452390
1520437774238209387,0.2096786437,0.0004468979,-0.0188113399,0.7541172550,0.5455548400,9.9229188972
1520437774243226387,0.2340701745,0.0006975709,-0.0001867221,0.7024068433,0.5803339396,10.0407648431
1520437774248242387,0.2524351987,0.0050281780,0.0173980366,0.6518989994,0.5947275584,10.1074846288
1520437774253256387,0.2660261214,0.0114038905,0.0323017657,0.6013911554,0.5623547007,10.2126007692
1520437774258274387,0.2740867998,0.0171975816,0.0461291329,0.5520858792,0.5623585408,10.3432407994
1520437774263288387,0.2766191275,0.0244518568,0.0578135163,0.5015780352,0.5395788064,10.3588625006
1520437774268304387,0.2700997772,0.0308408174,0.0649087523,0.4270188370,0.4940172773,10.3979833995
1520437774273321387,0.2560428303,0.0398565693,0.0693325388,0.3813212639,0.4532500619,10.4844666018
1520437774278336387,0.2374649703,0.0514966520,0.0724320046,0.3404339617,0.4316687188,10.4999934932
1520437774283351387,0.2141122171,0.0645990709,0.0728459946,0.3115723366,0.4076881581,10.4956492256
1520437774288368387,0.1839716315,0.0785860969,0.0684094292,0.3127749043,0.3645190092,10.4747610255
1520437774293384387,0.1472952535,0.0914064817,0.0634350146,0.3175851752,0.3573237920,10.5002883883
1520437774298399387,0.1088533621,0.1001497078,0.0573505602,0.2875209823,0.2937716911,10.5169130051
1520437774303414387,0.0661368854,0.1080214771,0.0496440955,0.2983440917,0.2685888993,10.4308335631
1520437774308431387,0.0226596946,0.1115250968,0.0408235010,0.2983440917,0.2230215632,10.3913651035
1520437774313445387,-0.0205660680,0.1141502909,0.0336190460,0.2742927375,0.2038371896,10.3369971483
1520437774318463387,-0.0683207059,0.1138649664,0.0245069399,0.2995466595,0.1738567122,10.2345119076
1520437774323479387,-0.1140666703,0.1118299372,0.0161893992,0.2983440917,0.1330860314,10.1694833087
1520437774328494387,-0.1573027710,0.1071719749,0.0083882752,0.2911286855,0.0971123807,10.1091571336
1520437774333509387,-0.2017967302,0.1013472538,0.0008511385,0.2779004406,0.0875202876,10.0035401441
1520437774338526387,-0.2402554285,0.0975602167,-0.0050583627,0.2586593572,0.0563441351,9.9502992060
1520437774343541387,-0.2734359732,0.0937723335,-0.0098954815,0.2045438101,0.0647423328,9.8683055274
1520437774348558387,-0.3028438678,0.0923170033,-0.0147218164,0.2249874613,0.0395587917,9.8239696273
1520437774353574387,-0.3297354299,0.0934858469,-0.0198033567,0.2021386747,0.0467554137,9.7149434756
1520437774358589387,-0.3500933597,0.0926088174,-0.0216660426,0.2141643518,0.0083819836,9.6439730627
1520437774363604387,-0.3661793428,0.0911485074,-0.0227294714,0.2358105707,0.0215708424,9.6274794936
1520437774368619387,-0.3752293506,0.0908630480,-0.0262319890,0.2779004406,0.0239658451,9.5875545835
1520437774373637387,-0.3810130500,0.0885318926,-0.0270506768,0.3007492272,0.0911159293,9.5035923397
1520437774378652387,-0.3805120402,0.0859030729,-0.0246367049,0.3308134200,0.0995075708,9.4254278830
1520437774383667387,-0.3754850560,0.0850236041,-0.0219472497,0.3692955868,0.1306822246,9.3948071756
1520437774388684387,-0.3679528304,0.0771460638,-0.0171514486,0.3548647743,0.1450730336,9.3252049669
1520437774393701387,-0.3518758722,0.0698553684,-0.0126376158,0.3837263994,0.1618587517,9.2493683178
1520437774398715387,-0.3305157030,0.0654740300,-0.0056764402,0.4378419465,0.1774433625,9.2290699416
1520437774403730387,-0.3053926025,0.0578962230,-0.0014521784,0.4522727590,0.1882345024,9.2265946690
1520437774408747387,-0.2807726719,0.0497347215,0.0030391165,0.4859446550,0.1942275821,9.2274232247
1520437774413762387,-0.2498678086,0.0427383059,0.0086098193,0.5508833115,0.2565778264,9.2139467625
1520437774418779387,-0.2172090913,0.0310767848,0.0154944152,0.5773398012,0.2853551361,9.2601469453
1520437774423794387,-0.1820325909,0.0226200212,0.0229398895,0.5773398012,0.2889525574,9.3101156273
1520437774428811387,-0.1488705270,0.0118343075,0.0292891294,0.6374681868,0.2793547510,9.3722955027
1520437774433825387,-0.1129405301,0.0016229762,0.0391547781,0.6831657599,0.3237193876,9.4357253625
1520437774438842387,-0.0787737139,-0.0106243653,0.0473848570,0.6663298119,0.3477035073,9.5067566277
1520437774443858387,-0.0463664718,-0.0225780978,0.0545382424,0.6879760307,0.3057319066,9.5519104778
1520437774448874387,-0.0131989115,-0.0304550653,0.0628035344,0.7000017079,0.3225189359,9.6493971486
1520437774453890387,0.0197211292,-0.0371738774,0.0737836444,0.6927863016,0.3285152000,9.7273251772
1520437774458905387,0.0486130026,-0.0473821380,0.0814979942,0.6831657599,0.3237193876,9.8087735718
1520437774463920387,0.0719767408,-0.0575940214,0.0897637037,0.6579118379,0.3225222140,9.8194798429
1520437774468937387,0.0920741235,-0.0669308459,0.0972305122,0.6579118379,0.2589677716,9.8695140079
1520437774473952387,0.1116714647,-0.0727639687,0.1020194722,0.6086065617,0.2757595775,9.9873540839
1520437774478969387,0.1239767372,-0.0829758136,0.1086824422,0.6062014263,0.2481795351,10.0327280030
1520437774483983387,0.1320176293,-0.0873609133,0.1151272623,0.5881629106,0.2385878166,10.0921822752
1520437774489000387,0.1370409165,-0.0914477972,0.1186039013,0.5785423689,0.2098091958,10.0818446842
1520437774494016387,0.1393007516,-0.0952458364,0.1226289891,0.6110116971,0.1846247180,10.1350118257
1520437774499032387,0.1345278693,-0.0970098544,0.1277648903,0.6302527805,0.1870215003,10.1999022676
1520437774504047387,0.1300093674,-0.0958570150,0.1318403721,0.6735452182,0.1810224265,10.1251095192
1520437774509063387,0.1222209463,-0.0964515773,0.1350969451,0.7072171142,0.1486430125,10.1224890618
1520437774514078387,0.1119212501,-0.0967601103,0.1399836838,0.7108248173,0.1366513273,10.1352492236
1520437774519095387,0.1011191797,-0.0956060901,0.1427181042,0.7228504944,0.1174641440,10.1165565792
1520437774524110387,0.0893160030,-0.0924171426,0.1470932285,0.7781686092,0.0706933591,10.1358201980
1520437774529127387,0.0772634249,-0.0857222096,0.1479783999,0.8178533437,0.0359151960,10.1180356827
1520437774534141387,0.0672229076,-0.0784466337,0.1499464672,0.8563355106,-0.0324388052,10.0828634546
1520437774539158387,0.0531591431,-0.0737987359,0.1532547238,0.8839945680,-0.0600211891,10.0849454210
1520437774544173387,0.0423638001,-0.0691546573,0.1584507343,0.8948176774,-0.0708142959,10.0174462502
1520437774549189387,0.0338268456,-0.0674257231,0.1644319511,0.9044382191,-0.1547548748,10.0476502063
1520437774554206387,0.0227736450,-0.0689066454,0.1717461107,0.9236793025,-0.1631503563,10.0160932240
1520437774559221387,0.0154798121,-0.0762064971,0.1763033488,0.9405152505,-0.1811387739,9.9764339989
1520437774564236387,0.0124595922,-0.0849732526,0.1851702715,0.9465280890,-0.1715461188,9.9229074970
1520437774569252387,0.0076811586,-0.0937436110,0.1951226448,0.9777948496,-0.1787433965,9.8982051585
1520437774574268387,0.0064163766,-0.1060099338,0.2053123529,0.9970359330,-0.1583595079,9.8398908011
1520437774579285387,0.0051512458,-0.1173970040,0.2136149089,0.9669717402,-0.1451666217,9.8018198143
1520437774584300387,0.0094137600,-0.1314131101,0.2251337401,0.9621614693,-0.1727464768,9.7344891800
1520437774589316387,0.0141777781,-0.1439618987,0.2328751106,0.9573511984,-0.2183134383,9.6985539725
1520437774594332387,0.0186965701,-0.1515550634,0.2398431027,0.9104510576,-0.2147123643,9.6931962419
1520437774599348387,0.0294983190,-0.1579765865,0.2454555895,0.9116536254,-0.2458901090,9.6757827804
1520437774604364387,0.0392932064,-0.1635148802,0.2475595159,0.9296921410,-0.2626794798,9.6198406655
1520437774609379387,0.0500995382,-0.1638049448,0.2486194073,0.9212741671,-0.2291028923,9.5943226924
1520437774614394387,0.0654292530,-0.1626297588,0.2472471000,0.9320972765,-0.2434934203,9.6139878262
1520437774619411387,0.0790036591,-0.1588335296,0.2461686135,0.9561486307,-0.2159150638,9.6090782544
1520437774624427387,0.0943386585,-0.1518219118,0.2415942172,0.9705794433,-0.2147170473,9.6100987684
1520437774629442387,0.1071623829,-0.1445242647,0.2386499866,1.0162770164,-0.2554913808,9.6155044535
1520437774634457387,0.1209947760,-0.1354815587,0.2370699570,1.0511514801,-0.2614897990,9.6593323238
1520437774639474387,0.1350787738,-0.1270251654,0.2368377441,1.0703925635,-0.3142534762,9.6580343499
1520437774644490387,0.1438883111,-0.1168239895,0.2371697627,1.0872285114,-0.3754109490,9.6463086759
1520437774649506387,0.1514309298,-0.1133207793,0.2358297085,1.0511514801,-0.4041875094,9.6676064829
1520437774654522387,0.1544478369,-0.1118604899,0.2350235856,1.0752028343,-0.4497567187,9.6953082716
1520437774659537387,0.1552027448,-0.1112781539,0.2352971775,1.0764054020,-0.4461593911,9.7289952332
1520437774664552387,0.1509344009,-0.1098287325,0.2374805944,1.0523540478,-0.4821317306,9.7071836793
1520437774669569387,0.1433967102,-0.1095432154,0.2385790027,1.0150744487,-0.4497520357,9.7121635397
1520437774674585387,0.1335937192,-0.1130516822,0.2415465328,1.0078590424,-0.4509506142,9.7319913866
1520437774679601387,0.1192684550,-0.1136386063,0.2410275981,0.9886179590,-0.4785293453,9.6868819481
1520437774684615387,0.1024328800,-0.1145280976,0.2442987500,0.9621614693,-0.4857221274,9.6801736117
1520437774689633387,0.0863501470,-0.1157064928,0.2467546410,0.9260844379,-0.4941133005,9.6491550620
1520437774694648387,0.0654920345,-0.1165917319,0.2478688934,0.9549460630,-0.5157000760,9.6395980371
1520437774699664387,0.0456430298,-0.1157333690,0.2508884386,0.8587406460,-0.4845149322,9.5498568104
1520437774704683387,0.0275575196,-0.1104984501,0.2520442418,0.7577249581,-0.4125586393,9.5461212989
1520437774709695387,0.0056943529,-0.1078721716,0.2475055743,0.7456992810,-0.4281465282,9.5113892323
1520437774714710387,-0.0141536285,-0.1020413326,0.2435287187,0.7553198227,-0.4377404009,9.4636570444
1520437774719726387,-0.0317346435,-0.0933001328,0.2411931688,0.7240530621,-0.4077594552,9.4557971347
1520437774724742387,-0.0463013899,-0.0845533809,0.2372287429,0.7950045572,-0.4713194235,9.4365742081
1520437774729759387,-0.0601088806,-0.0749460203,0.2384099581,0.7384838747,-0.4545270556,9.4498915585
1520437774734773387,-0.0721615840,-0.0659090846,0.2352547257,0.6278476451,-0.4257390687,9.4416432079
1520437774739790387,-0.0829623646,-0.0586126796,0.2293783622,0.6639246765,-0.4353350019,9.4250313956
1520437774744806387,-0.0894947580,-0.0530585373,0.2218574505,0.7072171142,-0.4053598631,9.4094729087
1520437774749821387,-0.0930105659,-0.0513116085,0.2218773232,0.6927863016,-0.3585922626,9.4281620684
1520437774754837387,-0.0987902155,-0.0498511229,0.2197348061,0.6843683276,-0.3513967645,9.4340477075
1520437774759853387,-0.1002997687,-0.0513093647,0.2199970369,0.7529146872,-0.3130296095,9.4193973730
1520437774764868387,-0.0970346912,-0.0539363730,0.2221353289,0.7240530621,-0.3082308000,9.3999171698
1520437774769885387,-0.0955372364,-0.0612189386,0.2215358596,0.6374681868,-0.2686524225,9.3879377621
1520437774774901387,-0.0910299547,-0.0711154991,0.2182053229,0.6158219680,-0.2518627707,9.3544299077
1520437774779916387,-0.0847627892,-0.0804286015,0.2148759654,0.6074039940,-0.2326758683,9.3173045272
1520437774784931387,-0.0779877101,-0.0885883521,0.2161538469,0.6314553482,-0.2206863373,9.3461123315
1520437774789949387,-0.0697123063,-0.0981862238,0.2106541653,0.6747477859,-0.2338802537,9.3491902441
1520437774794964387,-0.0601788245,-0.1066180652,0.2051610425,0.6025937231,-0.2014978427,9.3684552786
1520437774799979387,-0.0478855406,-0.1173755292,0.1980217256,0.5881629106,-0.1835096124,9.3418488882
1520437774804995387,-0.0335789610,-0.1255075595,0.1900870450,0.5761372334,-0.1739155524,9.3663616071
1520437774810011387,-0.0210294934,-0.1321833563,0.1821667469,0.6001885877,-0.1283500895,9.3707316469
1520437774815026387,-0.0054762677,-0.1449653919,0.1698654290,0.5977834523,-0.1031679533,9.3997840997
1520437774820043387,0.0110910370,-0.1525079396,0.1597666269,0.5845552074,-0.0671927104,9.4068506389
1520437774825059387,0.0286641525,-0.1597594373,0.1499387268,0.6158219680,-0.0468097583,9.4169857243
1520437774830075387,0.0449813031,-0.1661350885,0.1393081920,0.6194296711,0.0143461223,9.4633767310
1520437774835090387,0.0610458807,-0.1727993090,0.1275937172,0.5869603429,0.0443271617,9.5031764284
1520437774840107387,0.0821349373,-0.1812127812,0.1169387531,0.5893654783,0.1066822764,9.5460915390
1520437774845122387,0.1012165083,-0.1870023950,0.1054958928,0.6206322388,0.1510480369,9.6015268518
1520437774850138387,0.1192927115,-0.1916210371,0.0918994245,0.6122142648,0.1510486925,9.6632024167
1520437774855154387,0.1368697004,-0.1953730068,0.0810160180,0.6446835931,0.1954143594,9.7058424410
1520437774860169387,0.1547000071,-0.1994242753,0.0731059264,0.6891785985,0.2169954216,9.7100368816
1520437774865184387,0.1690093623,-0.2040531354,0.0627630098,0.7012042756,0.2121979233,9.7459509710
1520437774870201387,0.1818164250,-0.2043103615,0.0519151480,0.7144325204,0.2205908760,9.7818404926
1520437774875217387,0.1938704222,-0.2057414337,0.0440357989,0.7553198227,0.1750203555,9.8047298346
1520437774880234387,0.2059251722,-0.2048334171,0.0331982296,0.8262713177,0.0934732807,9.8110916151
1520437774885248387,0.2147223132,-0.1998596802,0.0269971311,0.8719688908,-0.0264443207,9.8026287492
1520437774890264387,0.2205062478,-0.1916753392,0.0183911742,0.8659560523,-0.0899982948,9.8004249615
1520437774895280387,0.2255350079,-0.1852432429,0.0111260084,0.9068433545,-0.2099155216,9.8047924994
1520437774900295387,0.2247892620,-0.1750261406,0.0041710233,0.9345024119,-0.3250351564,9.8209055550
1520437774905312387,0.2240464603,-0.1639407121,-0.0006129255,1.0258975581,-0.4269692106,9.8445203876
1520437774910327387,0.2182754356,-0.1554840841,-0.0037842721,1.0283026935,-0.5097100871,9.8596855333
1520437774915343387,0.2087365555,-0.1461562363,-0.0064008568,1.0571643186,-0.5792624795,9.8850396006
1520437774920359387,0.1974354119,-0.1406236323,-0.0066081616,1.1184952720,-0.6116440476,9.8530963281
1520437774925374387,0.1833779867,-0.1298501036,-0.0056881332,1.0836208083,-0.6608060888,9.8453487100
1520437774930391387,0.1647939718,-0.1211165819,-0.0053163572,1.0102641778,-0.6979737287,9.8774768547
1520437774935406387,0.1464627454,-0.1135586979,-0.0011662978,0.9922256621,-0.7015697451,9.8718452188
1520437774940422387,0.1203443838,-0.1019164699,0.0000533484,0.9320972765,-0.7099590450,9.8398986263
1520437774945438387,0.0987454886,-0.0920156779,-0.0006425662,0.9104510576,-0.7147539208,9.7785203651
1520437774950454387,0.0751371240,-0.0824114286,0.0002863053,0.9248818702,-0.6943696576,9.7446578509
1520437774955469387,0.0502742882,-0.0716435904,0.0017674946,0.9140587608,-0.6943688146,9.7517360602
1520437774960486387,0.0266724315,-0.0585485542,0.0048874103,0.8779817294,-0.6691840559,9.7148740492
1520437774965501387,0.0050878301,-0.0399142391,0.0072341931,0.8599432137,-0.6895680382,9.6232601314
1520437774970517387,-0.0167498695,-0.0209813536,0.0068782068,0.9080459222,-0.7003640484,9.6030460060
1520437774975533387,-0.0358198557,-0.0014733572,0.0097680834,0.8924125419,-0.6607911969,9.6019974396
1520437774980549387,-0.0521283656,0.0177523504,0.0096745982,0.9008305159,-0.6380081845,9.5972447109
1520437774985565387,-0.0666765057,0.0387306966,0.0082384549,0.8527278074,-0.6224156126,9.5988598557
1520437774990581387,-0.0799689436,0.0591267659,0.0067955318,0.8791842971,-0.6044305667,9.5892876528
1520437774995596387,-0.0904966082,0.0806930986,0.0040036376,0.9140587608,-0.5864461765,9.5656877870
1520437775000612387,-0.0980064483,0.1019604870,0.0044504705,0.9561486307,-0.5696614887,9.5408567162
1520437775005627387,-0.1042698266,0.1153588001,0.0056465840,1.0138718810,-0.5732634056,9.5402983815
1520437775010644387,-0.1070126455,0.1305067988,0.0068495020,1.0343155321,-0.5636718745,9.5459007606
1520437775015658387,-0.1067424346,0.1421520803,0.0107256013,1.0415309384,-0.5612741556,9.4551809632
