#timestamp [ns],w_RS_S_x [rad s^-1],w_RS_S_y [rad s^-1],w_RS_S_z [rad s^-1],a_RS_S_x [m s^-2],a_RS_S_y [m s^-2],a_RS_S_z [m s^-2]
1520531829221612058,-0.0979656668,-0.3364767905,-0.1428293128,0.4498676236,0.2853650640,10.2829122170
1520531829226626058,-0.0911937161,-0.3487239372,-0.1386065496,0.3993597796,0.2661827510,10.2764496751
1520531829231643058,-0.0841574509,-0.3539894117,-0.1300021647,0.3789161285,0.2386041135,10.2336762295
1520531829236658058,-0.0741048078,-0.3586709357,-0.1213989343,0.3656878837,0.1702541396,10.1606565684
1520531829241673058,-0.0675688506,-0.3616026172,-0.1138580149,0.3608776128,0.1114966335,10.1200856478
1520531829246689058,-0.0587645550,-0.3575307144,-0.1097850386,0.2742927375,0.0059790197,10.0501405325
1520531829251706058,-0.0509777217,-0.3595651687,-0.1106267063,0.1516308308,-0.1007349246,9.9933313218
1520531829256721058,-0.0451816142,-0.3476161386,-0.1105462944,-0.0323620293,-0.2242320583,9.9452704473
1520531829261737058,-0.0411468683,-0.3306843950,-0.1215172048,-0.1898983997,-0.3920994481,9.8725903041
1520531829266751058,-0.0396308189,-0.3137346968,-0.1395176412,-0.3077500356,-0.5671647712,9.9064481539
1520531829271768058,-0.0426291627,-0.2862794455,-0.1639227470,-0.4376273486,-0.7254411918,9.8974073572
1520531829276784058,-0.0458829336,-0.2591032938,-0.1929288895,-0.4400324840,-0.8537490298,9.8870965910
1520531829281801058,-0.0534048210,-0.2275514921,-0.2243286644,-0.5266173593,-0.9664614861,9.8659685379
1520531829286815058,-0.0624408838,-0.2018330707,-0.2538762794,-0.5374404688,-1.0623918770,9.9242746282
1520531829291832058,-0.0730013190,-0.1857192745,-0.2878231902,-0.3414219315,-1.0168398075,9.9513758680
1520531829296846058,-0.0823185973,-0.1818540626,-0.3178076158,-0.1333777172,-0.8969419684,9.9759632702
1520531829301863058,-0.0901343083,-0.1908463293,-0.3340948167,0.0987178514,-0.7158898408,9.9212311462
1520531829306878058,-0.0931680458,-0.1972266478,-0.3457715975,0.2658747635,-0.5336335152,9.8171577358
1520531829311895058,-0.0949382166,-0.2024591467,-0.3506781721,0.4053726182,-0.3585698779,9.6773340952
1520531829316910058,-0.0914185825,-0.2018771846,-0.3498686223,0.5881629106,-0.2194838251,9.6149877976
1520531829321926058,-0.0838675310,-0.1975238591,-0.3422739927,0.7733583384,-0.0732031171,9.5212331872
1520531829326941058,-0.0742938690,-0.1882344197,-0.3278816569,0.9044382191,0.0634886822,9.4396360985
1520531829331957058,-0.0619422455,-0.1719645089,-0.3083007291,0.9826051204,0.2385570962,9.4224345309
1520531829336973058,-0.0498446102,-0.1597835495,-0.2852333611,1.0884310792,0.3272852454,9.4619929933
1520531829341989058,-0.0359870089,-0.1490682932,-0.2586632789,1.1930544702,0.3284762374,9.4691084917
1520531829347003058,-0.0256529191,-0.1438980056,-0.2294234423,1.1726108191,0.3296769701,9.4704684523
1520531829352020058,-0.0135665942,-0.1413385631,-0.2042650689,1.1124824334,0.2733220532,9.5664044683
1520531829357036058,-0.0037463575,-0.1416923951,-0.1796658177,1.0571643186,0.2757246424,9.6052913127
1520531829362051058,0.0028052733,-0.1452614780,-0.1518384022,1.0234924227,0.3224937414,9.6044113061
1520531829367067058,0.0126178495,-0.1532000488,-0.1240504004,1.0343155321,0.3296877410,9.6531089906
1520531829372084058,0.0257039516,-0.1570615985,-0.0948846134,0.9248818702,0.3009168939,9.6716343742
1520531829377099058,0.0355199150,-0.1626698216,-0.0668082811,0.8334867240,0.2301747270,9.6656200858
1520531829382115058,0.0455889885,-0.1641861795,-0.0433005725,0.6494938639,0.1678337550,9.6326074464
1520531829387131058,0.0566659037,-0.1613204493,-0.0238195729,0.5268319572,0.1090854276,9.6094536368
1520531829392145058,0.0677382555,-0.1572687848,-0.0119049661,0.4294239725,0.0563308354,9.6639118192
1520531829397161058,0.0805700088,-0.1523393639,-0.0010691407,0.3993597796,0.0827142662,9.7466909409
1520531829402177058,0.0923924307,-0.1506162950,0.0100146435,0.3765109931,0.1150928372,9.8166104020
1520531829407193058,0.1014476645,-0.1500554766,0.0194713940,0.3536622065,0.1546662507,9.8295777934
1520531829412208058,0.1127601027,-0.1518204778,0.0272828839,0.3572699097,0.1150943357,9.8342298422
1520531829417223058,0.1218115964,-0.1541742331,0.0369879495,0.4222085662,0.1210849802,9.9195905751
1520531829422240058,0.1295942819,-0.1638050811,0.0436637666,0.4582855976,0.1354718555,9.9889540286
1520531829427257058,0.1378759112,-0.1769359888,0.0516647028,0.5015780352,0.0946977093,9.9827616843
1520531829432272058,0.1466610203,-0.1886061347,0.0583230915,0.4991728998,0.0719142286,9.9061058109
1520531829437288058,0.1539383012,-0.1970570729,0.0595978165,0.5629089886,0.0347359115,9.8636845101
1520531829442303058,0.1597161474,-0.1996823682,0.0614608954,0.6086065617,-0.0420126347,9.8377473887
1520531829447318058,0.1682603076,-0.1996790207,0.0614450268,0.6735452182,-0.0504116753,9.7290441132
1520531829452335058,0.1758073250,-0.1932634222,0.0606682953,0.6867734630,-0.0803912161,9.5767037331
1520531829457351058,0.1810981964,-0.1827693263,0.0599268874,0.7396864424,-0.0444211244,9.4727228185
1520531829462367058,0.1871359311,-0.1751785824,0.0553742061,0.8034225312,-0.0744045990,9.4361052214
1520531829467382058,0.1944375538,-0.1611725159,0.0492448236,0.8539303751,-0.0899973582,9.3868187644
1520531829472399058,0.1997278137,-0.1495055977,0.0458068492,0.8936151097,-0.0660176405,9.3201669054
1520531829477414058,0.2032622317,-0.1375574537,0.0458914615,0.9826051204,-0.0276520778,9.3029932970
1520531829482430058,0.2095538527,-0.1311459895,0.0464697931,0.9910230944,0.0406982707,9.2737911104
1520531829487445058,0.2135859404,-0.1229863759,0.0467951178,1.0042513393,0.1390267551,9.1573520735
1520531829492460058,0.2171248865,-0.1090043677,0.0490596590,1.0764054020,0.1833893312,9.1008235948
1520531829497476058,0.2201715261,-0.0889100372,0.0538067314,1.0920387823,0.2433451348,9.1738280312
1520531829502492058,0.2207093486,-0.0688305314,0.0636988431,1.1281158137,0.2817148186,9.1827366123
1520531829507508058,0.2202385455,-0.0507889258,0.0727656224,1.1305209491,0.3164897035,9.2117328902
1520531829512525058,0.2162430901,-0.0379958054,0.0826105580,1.1221029751,0.3284817634,9.3105853683
1520531829517540058,0.2069627026,-0.0313260130,0.0932302476,1.1088747303,0.3164913894,9.4106701974
1520531829522556058,0.1966704787,-0.0287323556,0.1024679515,1.0740002666,0.2853164545,9.4807686841
1520531829527571058,0.1831136125,-0.0249766252,0.1125322528,1.0403283706,0.2481457239,9.5845634871
1520531829532588058,0.1675400713,-0.0232497194,0.1182559920,0.9777948496,0.2301634878,9.6851340702
1520531829537602058,0.1509611975,-0.0235716402,0.1272125872,0.8827920002,0.2037897977,9.7383809731
1520531829542619058,0.1306068705,-0.0235825288,0.1283325754,0.7950045572,0.1378439116,9.8241362645
1520531829547634058,0.1115103588,-0.0221338172,0.1286497077,0.7817763124,0.1750182949,9.9009302716
1520531829552651058,0.0893980848,-0.0209784001,0.1292407635,0.7829788801,0.2109924140,9.8880999028
1520531829557667058,0.0690405549,-0.0201005665,0.1249565030,0.8238661823,0.2337728976,9.9271926079
1520531829562682058,0.0464282824,-0.0157342890,0.1234085790,0.8431072657,0.2133860118,9.9793216837
1520531829567698058,0.0233102446,-0.0136992846,0.1218438037,0.8611457814,0.2373674154,9.9744741453
1520531829572713058,-0.0018312035,-0.0201101202,0.1183244715,0.8623483491,0.2805363770,9.9976632231
1520531829577728058,-0.0257122880,-0.0244844139,0.1161710968,0.8479175366,0.2661478158,10.0140877312
1520531829582745058,-0.0516083736,-0.0288441983,0.1083399920,0.8166507760,0.2541588467,10.0492680747
1520531829587761058,-0.0787648658,-0.0349476830,0.0986040611,0.8407021303,0.2049922162,10.0920812428
1520531829592776058,-0.1031576865,-0.0413407408,0.0885902272,0.7709532029,0.1510363294,10.2078650078
1520531829597791058,-0.1313252233,-0.0509375916,0.0774767567,0.7565223904,0.1114658194,10.2696376862
1520531829602808058,-0.1582355132,-0.0581948611,0.0634027324,0.7072171142,0.0659023233,10.3201342185
1520531829607824058,-0.1806265211,-0.0704126365,0.0525290653,0.6531015671,0.0203392019,10.3079217974
1520531829612839058,-0.2015048119,-0.0803045725,0.0438347498,0.6182271034,-0.0144331542,10.2559986769
1520531829617854058,-0.2206183813,-0.0867021186,0.0362460278,0.6001885877,-0.0060377663,10.2073560213
1520531829622871058,-0.2367125815,-0.0904767510,0.0289422588,0.5905680460,-0.0288206851,10.1133382189
1520531829627887058,-0.2472635137,-0.0837608312,0.0222493447,0.5893654783,-0.0216257489,9.9680749137
1520531829632902058,-0.2555465544,-0.0729668273,0.0163949910,0.6326579159,-0.0120359973,9.8804833804
1520531829637919058,-0.2625710780,-0.0610082498,0.0110882879,0.6470887285,-0.0240285254,9.7920316726
1520531829642933058,-0.2660684403,-0.0414679256,0.0042095754,0.6711400828,-0.0000475902,9.6953162364
1520531829647949058,-0.2680559396,-0.0195922924,-0.0040068822,0.7853840155,-0.0264375772,9.5756912982
1520531829652966058,-0.2645137238,0.0019890234,-0.0103420095,0.8623483491,-0.0264435714,9.5040513934
1520531829657982058,-0.2629843607,0.0224069271,-0.0177644789,0.8876022711,-0.0480300659,9.4631515969
1520531829662997058,-0.2609633966,0.0355440567,-0.0265961884,0.9429203859,-0.0504326551,9.4242647525
1520531829668012058,-0.2579438824,0.0431423604,-0.0343898199,1.0078590424,-0.0888102063,9.4480751214
1520531829673028058,-0.2539320671,0.0399540029,-0.0401032052,1.0030487715,-0.1115934997,9.5039270688
1520531829678043058,-0.2464107793,0.0303565642,-0.0458720325,1.0258975581,-0.1379763685,9.5316218531
1520531829683060058,-0.2398981722,0.0146236312,-0.0457336681,0.9741871464,-0.1235826561,9.6645955493
1520531829688075058,-0.2311266002,-0.0019774704,-0.0474999946,0.9236793025,-0.1679469180,9.7139404733
1520531829693094058,-0.2208455182,-0.0168274887,-0.0500674207,0.8683611877,-0.1559512054,9.7481693871
1520531829698105058,-0.2080430895,-0.0258502888,-0.0520539605,0.7841814478,-0.1439532450,9.6955184258
1520531829703123058,-0.1919669585,-0.0305039548,-0.0529310378,0.7252556298,-0.1427495152,9.6333350307
1520531829708139058,-0.1713597488,-0.0293274296,-0.0540426004,0.6723426505,-0.1283557091,9.5827016871
1520531829713166058,-0.1525061777,-0.0249500060,-0.0537737124,0.7072171142,-0.1511420933,9.4766293581
1520531829718170058,-0.1293785937,-0.0202846231,-0.0516167145,0.6783554890,-0.1271570370,9.4269147026
1520531829723186058,-0.1029814433,-0.0144560643,-0.0481041620,0.6254425097,-0.1019709671,9.3727844031
1520531829728201058,-0.0745705661,-0.0089304857,-0.0399982863,0.6446835931,-0.0851844997,9.3458514405
1520531829733218058,-0.0476675250,-0.0031126565,-0.0324284789,0.7156350881,-0.0791943235,9.3463171395
1520531829738233058,-0.0190090851,0.0009619253,-0.0264985524,0.7228504944,-0.0564112174,9.3415761159
1520531829743249058,0.0131729878,0.0067759947,-0.0167741790,0.8034225312,0.0335180391,9.3290827371
1520531829748264058,0.0425882174,0.0090850824,-0.0043658898,0.8226636146,0.0958718426,9.3032674836
1520531829753280058,0.0735133061,0.0122660006,0.0091284520,0.8034225312,0.1078647454,9.3127402227
1520531829758296058,0.1059412637,0.0131222609,0.0204378416,0.8394995626,0.1366413057,9.3681439167
1520531829763311058,0.1340985055,0.0151431139,0.0314935119,0.8888048388,0.1354383252,9.3467465875
1520531829768328058,0.1594865401,0.0163011137,0.0379483667,0.9477306567,0.1210440508,9.4391585882
1520531829773344058,0.1800940477,0.0139642706,0.0430326827,0.9453255213,0.0982605701,9.4450149355
1520531829778359058,0.2032143671,0.0113362992,0.0483806543,0.8972228128,0.0562944017,9.4246054735
1520531829783375058,0.2202996571,0.0110603508,0.0451001433,0.8587406460,-0.0192484479,9.3936758169
1520531829788390058,0.2353785630,0.0148680972,0.0399606680,0.8238661823,-0.1331640720,9.3848291991
1520531829793406058,0.2484498030,0.0195441105,0.0367254170,0.7589275258,-0.1751289292,9.4250150935
1520531829798420058,0.2590123632,0.0262537319,0.0354042161,0.7769660415,-0.1631389298,9.4620164308
1520531829803437058,0.2693258240,0.0344194491,0.0343651433,0.7541172550,-0.1763276949,9.4424952424
1520531829808453058,0.2746158094,0.0419895016,0.0373891472,0.7252556298,-0.1511434982,9.4218330164
1520531829813468058,0.2786474110,0.0489799349,0.0390583090,0.6891785985,-0.1163656161,9.4663117275
1520531829818485058,0.2774080255,0.0594598160,0.0426577703,0.6975965724,-0.0971800250,9.5289668562
1520531829823500058,0.2736511158,0.0649778913,0.0489295654,0.7300659007,-0.0839920091,9.6587980798
1520531829828516058,0.2688778376,0.0629224888,0.0540632436,0.7889917186,-0.0300352794,9.8185477775
1520531829833532058,0.2638470546,0.0553263112,0.0607784252,0.8322841563,-0.0036575619,9.8773700117
1520531829838548058,0.2525368744,0.0477174742,0.0712929175,0.8382969949,0.0455067272,9.8900471270
1520531829843563058,0.2407192627,0.0386609872,0.0782801311,0.8370944272,0.0874767357,9.8865314733
1520531829848578058,0.2276448511,0.0301904192,0.0839213951,0.8503226720,0.0550989140,9.9294336161
1520531829853596058,0.2138152688,0.0214310850,0.0884796525,0.9248818702,0.0982621623,9.9716651327
1520531829858611058,0.1936958690,0.0074250963,0.0927390166,0.9369075473,0.1486251235,10.0110118644
1520531829863626058,0.1753335851,-0.0065736473,0.0945602006,0.8936151097,0.1258448272,10.0091311759
1520531829868642058,0.1582314061,-0.0167788007,0.0945141298,0.8839945680,0.1054601893,10.0568925973
1520531829873658058,0.1393692570,-0.0269817296,0.0933891425,0.8262713177,0.0706896127,10.0795690859
1520531829878674058,0.1184939575,-0.0348347023,0.0849809344,0.7841814478,0.0071384483,10.0358792676
1520531829883689058,0.1008967158,-0.0351133111,0.0777066428,0.7360787393,0.0179344586,10.0026347712
1520531829888705058,0.0823031233,-0.0283968997,0.0696759344,0.6723426505,0.0683033203,9.9172073743
1520531829893721058,0.0652221616,-0.0187689661,0.0627468401,0.6302527805,0.1078782324,9.9059570235
1520531829898736058,0.0476495127,-0.0012745756,0.0561492485,0.6074039940,0.1006851694,9.9271050268
1520531829903753058,0.0295633126,0.0086458056,0.0486831523,0.5496807438,0.1078845076,9.9973884908
1520531829908769058,0.0134756281,0.0112889172,0.0387228323,0.5653141240,0.0767056390,10.0135367432
1520531829913783058,-0.0023570997,0.0188958622,0.0250121954,0.5039831707,-0.0000345714,10.0804507442
1520531829918800058,-0.0219630932,0.0238795980,0.0110180056,0.4378419465,-0.0180165265,10.1008685096
1520531829923815058,-0.0410650267,0.0338345501,-0.0094324266,0.3777135608,-0.0371980903,10.0840403125
1520531829928832058,-0.0566457893,0.0443663653,-0.0271794878,0.4546778944,-0.0288101015,10.0728237080
1520531829933848058,-0.0717237777,0.0551904903,-0.0451958053,0.4871472227,0.0071615824,10.0666618715
1520531829938863058,-0.0883090338,0.0654268850,-0.0615904932,0.5087934415,0.0599220751,10.0478054263
1520531829943879058,-0.1028861497,0.0715737575,-0.0739618497,0.6049988586,0.1306638673,10.0282057275
1520531829948893058,-0.1189665774,0.0785832664,-0.0822655481,0.6567092702,0.2062056866,10.0032237186
1520531829953910058,-0.1320271186,0.0847015923,-0.0838178691,0.7637377967,0.2493664061,9.9114926440
1520531829958925058,-0.1415612159,0.0928427776,-0.0785975152,0.8322841563,0.3225086333,9.8665926558
1520531829963941058,-0.1526050036,0.0974772882,-0.0698839413,0.8912099742,0.3728679417,9.8276192453
1520531829968957058,-0.1586280564,0.0959844948,-0.0574387442,0.9405152505,0.3800589442,9.8085380187
1520531829973973058,-0.1631395840,0.0944799088,-0.0403970672,1.0042513393,0.4675912312,9.7566979549
1520531829978989058,-0.1666352802,0.0967455047,-0.0165647095,0.9874153913,0.5695194784,9.6788987870
1520531829984004058,-0.1683619425,0.1060035616,0.0078588269,0.9898205267,0.6618531037,9.6299752916
1520531829989020058,-0.1710856220,0.1193318669,0.0355619042,1.0078590424,0.6846353668,9.5670217248
1520531829994036058,-0.1715495489,0.1309112942,0.0637885342,1.0054539070,0.6966269584,9.6204920634
1520531829999050058,-0.1705128571,0.1360757537,0.0938572773,0.9549460630,0.6906351900,9.6907181598
1520531830004068058,-0.1732641207,0.1295920964,0.1205975471,0.9272870056,0.6306803230,9.7968009429
1520531830009082058,-0.1785402907,0.1161222387,0.1443131252,0.8082328020,0.4999832892,9.9956516736
1520531830014098058,-0.1850840770,0.0977129203,0.1625823265,0.6927863016,0.3860739403,10.0549936440
1520531830019115058,-0.1916323404,0.0799038533,0.1743628725,0.5605038532,0.2409882517,10.1063948803
1520531830024130058,-0.1954190295,0.0656172503,0.1769664012,0.4919574935,0.1342700926,10.0711396771
1520531830029147058,-0.2004636986,0.0539693697,0.1733697156,0.4246137016,0.0299501207,10.0428432939
1520531830034161058,-0.2052479970,0.0522432301,0.1644372302,0.3753084254,-0.0515875880,10.0015655340
1520531830039178058,-0.2057645591,0.0517039700,0.1482009638,0.3127749043,-0.1187345814,9.9243760350
1520531830044193058,-0.2052738991,0.0537926635,0.1300890169,0.2430259770,-0.2014698383,9.8647041270
1520531830049208058,-0.2075459814,0.0588021320,0.1090284300,0.2586593572,-0.3141902557,9.7554203475
1520531830054224058,-0.2020230446,0.0687747455,0.0855562540,0.2117592164,-0.3669487816,9.6745782188
1520531830059240058,-0.1954958769,0.0793363492,0.0599222902,0.1720744819,-0.4089156057,9.6610596851
1520531830064255058,-0.1887200057,0.0881504727,0.0340039752,0.1564411016,-0.4472868816,9.6461413983
1520531830069273058,-0.1809332232,0.0998730079,0.0102703914,0.1985309716,-0.4017228236,9.6387144227
1520531830074289058,-0.1706287950,0.1127518677,-0.0096713248,0.3211928783,-0.3058011431,9.6339405279
1520531830079304058,-0.1600656075,0.1241425807,-0.0179911497,0.4618933007,-0.1127504931,9.6056534618
1520531830084319058,-0.1499995761,0.1343442490,-0.0176614647,0.6555067025,0.1018805634,9.5884517646
1520531830089335058,-0.1338990013,0.1410247139,-0.0073594600,0.9140587608,0.3308962474,9.5357396436
1520531830094351058,-0.1210574157,0.1447507183,0.0175358596,1.2074852827,0.5898877258,9.5012531458
1520531830099366058,-0.1072015864,0.1496178880,0.0516367652,1.3770473303,0.7937283917,9.4796474979
1520531830104383058,-0.0953554540,0.1512622863,0.0919395062,1.3217292155,0.9388286913,9.5067737514
1520531830109399058,-0.0857805571,0.1462054113,0.1316542250,1.2435623141,0.9616184473,9.6039703108
1520531830114412058,-0.0764631181,0.1367783984,0.1710655183,1.1533697357,0.8836813442,9.7071928651
1520531830119430058,-0.0711606032,0.1337697393,0.2070160904,0.9224767348,0.7002308422,9.7967799414
1520531830124446058,-0.0691362678,0.1269921976,0.2353685447,0.6374681868,0.5263776782,9.9972880662
1520531830129462058,-0.0719042324,0.1147099870,0.2512425169,0.2442285447,0.2038395311,10.1374010145
1520531830134477058,-0.0767023621,0.0966386335,0.2524662829,-0.1886958320,-0.2302155846,10.3442511837
1520531830139492058,-0.0852936965,0.0742540382,0.2317494858,-0.4496530257,-0.6235133192,10.5540363481
1520531830144508058,-0.0961565567,0.0516084947,0.1994011926,-0.5434533073,-0.8921134686,10.5831027294
1520531830149523058,-0.1077597565,0.0412110041,0.1633600267,-0.4532607288,-0.9161033016,10.3997916361
1520531830154540058,-0.1150811497,0.0392711660,0.1252110287,-0.2776858428,-0.8417702697,10.0981770586
1520531830159556058,-0.1206162670,0.0553891166,0.0904431458,-0.0455902742,-0.7206751633,9.7390216855
1520531830164571058,-0.1268809193,0.0848900640,0.0633542100,0.1937207007,-0.6103728827,9.4437245236
1520531830169587058,-0.1260970276,0.1196219357,0.0425147771,0.3031543626,-0.5516235250,9.2461997376
1520531830174603058,-0.1225509148,0.1534836506,0.0205813574,0.3332185554,-0.5372361814,9.1471108430
1520531830179619058,-0.1217790824,0.1777183951,0.0023673524,0.3127749043,-0.5588191168,9.1333851496
1520531830184635058,-0.1210185995,0.1940879426,-0.0167183136,0.3067620657,-0.5887971591,9.1776343787
1520531830189650058,-0.1180059852,0.1993675534,-0.0291290100,0.2935338209,-0.6175754990,9.2637898510
1520531830194665058,-0.1139909041,0.2023150249,-0.0410182661,0.3187877429,-0.5588195851,9.3227560889
1520531830199682058,-0.1102292429,0.2002935640,-0.0472633842,0.3223954460,-0.4880705811,9.3017333915
1520531830204697058,-0.1069679839,0.1982646218,-0.0508021098,0.3572699097,-0.4532982250,9.3315757769
1520531830209713058,-0.0981767903,0.1959406337,-0.0521889593,0.3825238317,-0.4017371536,9.3196582496
1520531830214728058,-0.0898917580,0.1909939879,-0.0535948831,0.4029674828,-0.3573705502,9.3159295662
1520531830219745058,-0.0788416506,0.1851677157,-0.0525776970,0.4667035716,-0.3441849695,9.3048370399
1520531830224761058,-0.0645252307,0.1787592259,-0.0513004787,0.4715138424,-0.3106094123,9.2640824398
1520531830229777058,-0.0507095229,0.1714661876,-0.0462413535,0.4606907330,-0.2530498290,9.2525102174
1520531830234792058,-0.0356399123,0.1638895413,-0.0438922441,0.4787292487,-0.2422589701,9.2372162461
1520531830239808058,-0.0198154408,0.1557245939,-0.0393846138,0.4354368110,-0.2398573175,9.3085260707
1520531830244824058,-0.0034890773,0.1463913916,-0.0338046257,0.4570830299,-0.1894951056,9.3594006014
1520531830249839058,0.0148404633,0.1323997382,-0.0293461244,0.4186008630,-0.1379290703,9.3597248816
1520531830254855058,0.0321672314,0.1213266353,-0.0267573466,0.3753084254,-0.1379256985,9.4182534614
1520531830259870058,0.0484939046,0.1128705003,-0.0222528729,0.3572699097,-0.1127423447,9.4335123525
1520531830264886058,0.0658292034,0.1064522655,-0.0169230667,0.3440416648,-0.0575808550,9.4463709020
1520531830269902058,0.0826663073,0.1044097007,-0.0134528021,0.3368262586,-0.0264026420,9.4487350174
1520531830274918058,0.0984953971,0.0991564133,-0.0081113033,0.2971415240,-0.0491832193,9.4747106687
1520531830279934058,0.1140738976,0.0965349578,-0.0062664267,0.3067620657,-0.0515822494,9.5222672691
1520531830284950058,0.1248789945,0.0942001024,-0.0033282756,0.2454311124,0.0035829867,9.5123511418
1520531830289965058,0.1369390449,0.0904073598,0.0001375182,0.2526465187,0.0323617949,9.5296850066
1520531830294981058,0.1477392138,0.0842837772,0.0033173151,0.2670773312,-0.0036135417,9.5690925205
1520531830299997058,0.1560270060,0.0769863875,0.0091983458,0.2033412424,0.0047854053,9.6382711965
1520531830305013058,0.1638034934,0.0647418199,0.0126076045,0.2310002998,-0.0036107319,9.6600909007
1520531830310028058,0.1720815199,0.0507447714,0.0176258665,0.2310002998,-0.0168012765,9.7007788018
1520531830315043058,0.1768538101,0.0446078994,0.0248750532,0.2033412424,0.0383613371,9.6812377813
1520531830320060058,0.1783641513,0.0451854317,0.0270410662,0.1756821850,0.1043162146,9.6977126993
1520531830325076058,0.1836450766,0.0472242773,0.0281290102,0.2370131384,0.1151037017,9.7168616646
1520531830330091058,0.1823978111,0.0501201479,0.0346466761,0.2779004406,0.1151005173,9.7966516255
1520531830335108058,0.1819028621,0.0533142543,0.0387302520,0.2261900290,0.1199011064,9.8622303270
1520531830340123058,0.1758743679,0.0530103088,0.0425268728,0.1937207007,0.0839294225,9.9137157777
1520531830345138058,0.1675799618,0.0500852018,0.0454960486,0.2105566487,0.0275685113,10.0274969733
1520531830350155058,0.1590313049,0.0433647131,0.0511422501,0.1985309716,-0.0108030456,10.0218407230
1520531830355169058,0.1477168672,0.0363553991,0.0554386329,0.1913155653,-0.0335861517,9.9893931401
1520531830360185058,0.1336417060,0.0319674628,0.0597601575,0.1191615025,-0.0695547448,9.9448069094
1520531830365201058,0.1175520652,0.0255434177,0.0624465788,0.1083383931,-0.0731513231,9.9414293311
1520531830370218058,0.1039840376,0.0261164996,0.0640995034,0.0987178514,-0.0815445568,9.9566390283
1520531830375233058,0.0869012489,0.0257987524,0.0714337567,0.1492256953,-0.0611631033,9.9735596965
1520531830380249058,0.0695677769,0.0257715629,0.0790412457,0.1287820442,-0.0539666686,10.0295345762
1520531830385264058,0.0527418265,0.0280698191,0.0888299531,0.1468205599,-0.0539680735,10.0014675455
1520531830390281058,0.0334058752,0.0309425755,0.1013332329,0.1480231276,0.0047897136,10.0629921723
1520531830395295058,0.0150707205,0.0309033372,0.1132713231,0.1083383931,-0.0048003190,10.0587392181
1520531830400312058,-0.0027598135,0.0320283772,0.1257584640,0.0842870388,-0.0179889904,10.0915262127
1520531830405328058,-0.0223547555,0.0319995731,0.1336406994,0.0554254137,-0.0359738490,10.0999596818
1520531830410344058,-0.0379271167,0.0316736756,0.1442187031,0.0530202783,-0.0251813978,10.1348368865
1520531830415357058,-0.0530004439,0.0287255141,0.1547757656,0.0025124344,-0.0179826216,10.1399700586
1520531830420374058,-0.0680739045,0.0251923984,0.1661400196,-0.0311594616,-0.0299714033,10.1670388046
1520531830425391058,-0.0808835114,0.0263361613,0.1723952704,-0.1105289307,-0.0983162259,10.2097151730
1520531830430407058,-0.0952051689,0.0280788565,0.1724352121,-0.2716730042,-0.1954340498,10.2241619505
1520531830435422058,-0.1082751543,0.0327650265,0.1616732153,-0.3859169369,-0.2817632626,10.1730616454
1520531830440437058,-0.1225983721,0.0421230547,0.1471614789,-0.3257885513,-0.3081490349,10.1167192082
1520531830445453058,-0.1359162612,0.0520664311,0.1318406840,-0.1478085298,-0.2781843860,10.0429047012
1520531830450470058,-0.1482207261,0.0687149591,0.1154869697,0.0662485231,-0.2566165298,9.8757757116
1520531830455485058,-0.1600188061,0.0894488949,0.0969990779,0.2586593572,-0.1690942645,9.7192523949
1520531830460500058,-0.1725680698,0.1066611543,0.0876844698,0.3500545034,-0.0695727275,9.6729421412
1520531830465516058,-0.1848654191,0.1241641683,0.0786421639,0.3452442326,-0.0515852465,9.6567014060
1520531830470532058,-0.1991789221,0.1375877396,0.0693019226,0.3536622065,-0.1031489403,9.7078040861
1520531830475548058,-0.2127446053,0.1445924056,0.0631579241,0.2766978729,-0.1427145801,9.8015633143
1520531830480564058,-0.2273292091,0.1419831736,0.0561307930,0.1816950236,-0.2086599042,9.8815781163
1520531830485579058,-0.2386500919,0.1385076239,0.0466560122,0.1131486640,-0.2877978336,9.9102139358
1520531830490595058,-0.2514785952,0.1338601179,0.0393395065,0.1600488048,-0.2913989076,9.9120852345
1520531830495610058,-0.2592723285,0.1335758793,0.0355641093,0.1853027267,-0.2110584661,9.9384903936
1520531830500627058,-0.2645589776,0.1257020589,0.0371371626,0.2177720550,-0.0947443738,9.9613038102
1520531830505642058,-0.2688363072,0.1166441550,0.0457336499,0.2418234092,-0.0275943833,9.9273020514
1520531830510659058,-0.2683448122,0.1026316711,0.0553656606,0.2562542218,0.0059804246,9.9375881448
1520531830515673058,-0.2645864755,0.0889133085,0.0644527352,0.2875209823,-0.0192039594,9.9361462255
1520531830520689058,-0.2590685257,0.0731450169,0.0775791696,0.2923312532,-0.1151355679,9.9083014975
1520531830525705058,-0.2502846555,0.0579666017,0.0885396156,0.2803055761,-0.1223294739,9.8793719653
1520531830530722058,-0.2379895447,0.0407637135,0.0943375938,0.2466336801,-0.2038684002,9.8495634791
1520531830535738058,-0.2266938622,0.0291025648,0.0980153104,0.2538490864,-0.2650251237,9.8123642786
1520531830540753058,-0.2121250028,0.0223976900,0.1011836602,0.2646721958,-0.2818139326,9.6774666051
1520531830545767058,-0.1952875813,0.0241591495,0.0987308152,0.2310002998,-0.2974001356,9.6115673427
1520531830550784058,-0.1764384833,0.0306003031,0.0900872502,0.1756821850,-0.3213786357,9.4842933271
1520531830555800058,-0.1543152007,0.0411162925,0.0836331081,0.1011229868,-0.3765332883,9.3781555864
1520531830560815058,-0.1344511377,0.0557209772,0.0734266472,-0.0275517585,-0.4412768495,9.3109046785
1520531830565831058,-0.1110644885,0.0747029073,0.0613531772,-0.1357828526,-0.5539876199,9.2969601801
1520531830570848058,-0.0856695147,0.0928143851,0.0481871205,-0.1898983997,-0.6139404264,9.2812753592
1520531830575863058,-0.0597746326,0.1068372068,0.0385061039,-0.1790752903,-0.5935558822,9.2916094305
1520531830580879058,-0.0338793154,0.1193950932,0.0317899766,-0.1393905558,-0.5911606921,9.2121950361
1520531830585895058,-0.0092408883,0.1316611028,0.0250739599,-0.1321751495,-0.5971569562,9.2353735315
1520531830590910058,0.0163946816,0.1375148613,0.0191188062,-0.0924904150,-0.6079523108,9.2814835469
1520531830595925058,0.0410229038,0.1430826689,0.0109989290,-0.0732493316,-0.6055555285,9.3010503745
1520531830600942058,0.0651468976,0.1463141043,0.0047560219,-0.0239440553,-0.5599920324,9.3504982224
1520531830605958058,0.0859970987,0.1442986099,-0.0012502874,0.0145381115,-0.5072328509,9.4476923018
1520531830610973058,0.1063395508,0.1370314412,-0.0048607658,0.0301714918,-0.4784546983,9.5439700201
1520531830615988058,0.1236586701,0.1227640350,-0.0063546304,0.1011229868,-0.4065117989,9.6454779294
1520531830621005058,0.1369501397,0.1014930836,-0.0046478306,0.1347948828,-0.3501548215,9.7438774650
1520531830626020058,0.1514971271,0.0764207855,0.0021681074,0.1853027267,-0.2818077510,9.9013707780
1520531830631036058,0.1652834005,0.0469803378,0.0078699157,0.1949232684,-0.2602239727,9.9384446960
1520531830636051058,0.1753011166,0.0187061367,0.0127759795,0.1816950236,-0.2925997339,9.9967122215
1520531830641068058,0.1835700791,-0.0022855973,0.0182819793,0.1624539402,-0.2913990949,9.9690068782
1520531830646083058,0.1928456051,-0.0206471924,0.0211006610,0.1167563671,-0.2853998337,10.0101208620
1520531830651099058,0.1955914545,-0.0355125477,0.0231465169,0.1047306900,-0.2722083524,10.0125493378
1520531830656116058,0.1970831424,-0.0483372468,0.0246691762,0.0915024451,-0.2302374074,10.0126371665
1520531830661131058,0.2028522736,-0.0588364802,0.0289071448,0.1384025859,-0.1451020900,9.9795576155
1520531830666146058,0.2043586003,-0.0652703873,0.0377834511,0.1528333985,-0.1019341587,9.9549700356
1520531830671163058,0.2041051295,-0.0728734354,0.0477363158,0.1287820442,-0.0347804218,9.9272471988
1520531830676178058,0.2043550874,-0.0816498374,0.0606553595,0.1347948828,0.0191804290,9.9236496214
1520531830681194058,0.2030948336,-0.0918822960,0.0730249964,0.1564411016,0.0323692877,9.9466689467
1520531830686210058,0.2023361188,-0.1038672354,0.0870036366,0.1636565079,0.0227756024,9.9837966776
1520531830691225058,0.2000720339,-0.1129338213,0.0991134868,0.1372000182,-0.0060017073,9.9747851014
1520531830696240058,0.1973018818,-0.1222817905,0.1074344048,0.1155537994,-0.0167922852,10.0017356274
1520531830701257058,0.1912644490,-0.1319224242,0.1157591671,0.0999204191,-0.0599601228,9.9844977300
1520531830706273058,0.1852384559,-0.1328200652,0.1236095302,0.0842870388,-0.0863399946,9.9556220224
1520531830711289058,0.1802133928,-0.1360447465,0.1300875122,0.0818819034,-0.1187165987,9.9940277551
1520531830716303058,0.1766908065,-0.1404219918,0.1319545213,0.0289689240,-0.1426952861,10.0189711874
1520531830721320058,0.1741761481,-0.1410028317,0.1308725588,0.0301714918,-0.1546867840,9.9841068572
1520531830726336058,0.1671440032,-0.1383853130,0.1317172725,0.0241586532,-0.1582837370,9.9911417542
1520531830731352058,0.1598564783,-0.1348762568,0.1260760207,0.0049175698,-0.1498882555,9.9518079553
1520531830736367058,0.1553320527,-0.1322402712,0.1204229657,-0.0083106751,-0.1618786294,9.9368405329
1520531830741382058,0.1462862710,-0.1284419766,0.1153282958,0.0470074397,-0.1522898144,9.9072391467
1520531830746398058,0.1390028351,-0.1228975993,0.1113258810,0.0987178514,-0.1115230674,9.8997232080
1520531830751414058,0.1332271922,-0.1173526313,0.1073206658,0.1335923151,-0.1067292218,9.8807847808
1520531830756430058,0.1241769178,-0.1188079993,0.1054325311,0.1913155653,-0.0851491899,9.9185526404
1520531830761446058,0.1178951880,-0.1208618073,0.1097573719,0.2658747635,-0.0204014140,9.9654116847
1520531830766461058,0.1108571389,-0.1258348549,0.1159552033,0.2502413832,-0.0144044943,10.0573673762
1520531830771478058,0.1043202839,-0.1302176523,0.1194510885,0.2153669196,-0.0132026377,10.0495706458
1520531830776493058,0.0967859334,-0.1287724245,0.1227227564,0.1804924559,-0.0467758534,10.0685371372
1520531830781508058,0.0867396139,-0.1238191836,0.1214264883,0.2273925967,-0.0671648933,10.0901812539
1520531830786524058,0.0756939051,-0.1150805229,0.1209726249,0.1744796173,-0.0887452999,10.0651501575
1520531830791540058,0.0656555559,-0.1016654758,0.1154120919,0.1456179922,-0.1187215627,10.0619738804
1520531830796555058,0.0551074385,-0.0932027058,0.1092736082,0.2033412424,-0.0839509861,10.0741617104
1520531830801572058,0.0420536326,-0.0806673643,0.1053352820,0.2225823258,-0.1175284165,10.0228728370
1520531830806588058,0.0272375241,-0.0701709469,0.1008435695,0.2466336801,-0.1690933279,10.0610397680
1520531830811603058,0.0093972910,-0.0672575361,0.0984640247,0.2598619249,-0.1954754475,10.0109645478
1520531830816618058,-0.0031671644,-0.0660932786,0.0971435237,0.2526465187,-0.2302499578,9.9332050440
1520531830821635058,-0.0195039130,-0.0652138697,0.0928517956,0.2273925967,-0.2734170462,9.9346550904
1520531830826651058,-0.0340760264,-0.0602543883,0.0885879237,0.2418234092,-0.2962018381,9.9415097109
1520531830831667058,-0.0501614292,-0.0582042438,0.0824108000,0.2201771904,-0.2842087480,9.8464129042
1520531830836682058,-0.0672465740,-0.0529529056,0.0776127266,0.2297977321,-0.3105905866,9.8021835190
1520531830841698058,-0.0795521994,-0.0433252866,0.0714864022,0.2658747635,-0.3045976943,9.7913672250
1520531830846713058,-0.0941079451,-0.0258340852,0.0665064853,0.2406208415,-0.2806129190,9.7939139323
1520531830851729058,-0.1066578713,-0.0100831190,0.0588040371,0.1937207007,-0.3141851981,9.7746467238
1520531830856745058,-0.1166957736,0.0062574283,0.0489370006,0.1841001590,-0.2842059382,9.7561168275
1520531830861761058,-0.1272389121,0.0211430413,0.0382481445,0.1600488048,-0.2854032054,9.6982449003
1520531830866776058,-0.1392918272,0.0331076624,0.0299747709,0.1949232684,-0.2937999046,9.7153457983
1520531830871792058,-0.1460718618,0.0436254412,0.0187044759,0.1636565079,-0.2949966098,9.7365698903
1520531830876808058,-0.1505929785,0.0521044144,0.0074144188,0.1877078622,-0.3237778532,9.7386881412
1520531830881824058,-0.1556192883,0.0588356120,-0.0041585893,0.1816950236,-0.3069894189,9.7282710002
1520531830886840058,-0.1611463061,0.0661457395,-0.0143734883,0.1961258361,-0.2937999982,9.7037126537
1520531830891856058,-0.1644126459,0.0728747125,-0.0248675799,0.2514439509,-0.2830120428,9.7136229926
1520531830896870058,-0.1651612498,0.0816378059,-0.0329158640,0.2502413832,-0.3261810043,9.6730017555
1520531830901887058,-0.1694299230,0.0912838725,-0.0447385873,0.3091672012,-0.2878131001,9.6805257966
1520531830906902058,-0.1716849555,0.1012126417,-0.0530457247,0.3873341025,-0.2878191880,9.6449006493
1520531830911918058,-0.1686591921,0.1140587806,-0.0618815242,0.3813212639,-0.3297886345,9.6264057982
1520531830916934058,-0.1691545526,0.1274986935,-0.0753056236,0.3452442326,-0.3417772290,9.5744721653
1520531830921950058,-0.1688930685,0.1432707064,-0.0889838844,0.2827107115,-0.4029285203,9.5937347678
1520531830926965058,-0.1711472973,0.1581726802,-0.1045579685,0.2622670604,-0.4556891067,9.5602830300
1520531830931981058,-0.1703857207,0.1730751070,-0.1198671074,0.3031543626,-0.4820733804,9.5610729275
1520531830936997058,-0.1701276748,0.1838826565,-0.1295249722,0.2730901698,-0.4904650219,9.5590494514
1520531830942013058,-0.1698746901,0.1903165244,-0.1381339998,0.3127749043,-0.4844724105,9.5551709060
1520531830947028058,-0.1681186680,0.1917908901,-0.1443487070,0.3356236908,-0.4748810667,9.5758577464
1520531830952045058,-0.1663641944,0.1888799193,-0.1451858426,0.3632827482,-0.4712857996,9.6267193561
1520531830957060058,-0.1651175601,0.1798394785,-0.1422810870,0.3777135608,-0.4245204470,9.6335061549
1520531830962075058,-0.1646254810,0.1708009276,-0.1401865689,0.3548647743,-0.3789513314,9.6278733963
1520531830967091058,-0.1623747138,0.1585447244,-0.1332499457,0.3296108523,-0.3034035179,9.6280455341
1520531830972108058,-0.1626312229,0.1477320759,-0.1216982596,0.3260031491,-0.2602341816,9.7024157661
1520531830977124058,-0.1588694128,0.1357583783,-0.1112451170,0.2730901698,-0.2074678820,9.7028793377
1520531830982140058,-0.1543439012,0.1287283150,-0.0969679396,0.2009361070,-0.1582975050,9.6907501147
1520531830987155058,-0.1460444184,0.1254899127,-0.0834805006,0.1287820442,-0.1630884471,9.7042406789
1520531830992170058,-0.1380000136,0.1210931581,-0.0727069462,0.0866921743,-0.1882671179,9.7116477757
1520531830997185058,-0.1292004774,0.1187414896,-0.0638130517,0.0578305492,-0.2062519764,9.7154326690
1520531831002202058,-0.1186389012,0.1187223149,-0.0551751854,0.0085252729,-0.2506163320,9.6741186595
1520531831007218058,-0.1040612483,0.1163787383,-0.0484563926,-0.0179312168,-0.2386228673,9.6615808939
1520531831012234058,-0.0904958278,0.1096676422,-0.0431218087,-0.0275517585,-0.2829903136,9.6477720724
1520531831017248058,-0.0771811377,0.1020764666,-0.0356290602,-0.0047029719,-0.2961826378,9.6429139633
1520531831022266058,-0.0583373872,0.0956566372,-0.0294904167,-0.1105289307,-0.2697933065,9.6218375477
1520531831027280058,-0.0462883807,0.0834122865,-0.0255480005,-0.1189469046,-0.2578012466,9.5963406227
1520531831032297058,-0.0287061817,0.0740817617,-0.0207819838,-0.1153392015,-0.2877800382,9.5324168235
1520531831037312058,-0.0126316423,0.0653356006,-0.0168203582,-0.1381879881,-0.2973713820,9.5233514226
1520531831042328058,0.0054564083,0.0577506662,-0.0109597528,-0.1610367746,-0.2997678833,9.5375218848
1520531831047343058,0.0217884525,0.0545452801,-0.0085796307,-0.1574290715,-0.2913741813,9.5688564711
1520531831052360058,0.0376110422,0.0487281629,-0.0102767713,-0.1826829934,-0.2901730741,9.5656146761
1520531831057375058,0.0506719833,0.0443646999,-0.0111460249,-0.2043292123,-0.2865739669,9.6099833293
1520531831062390058,0.0647397035,0.0411671689,-0.0120082530,-0.2199625925,-0.2398062728,9.6170627545
1520531831067407058,0.0798114311,0.0370958782,-0.0128790173,-0.2355959728,-0.2446016169,9.6114088779
1520531831072423058,0.0941313323,0.0353590104,-0.0150833262,-0.2404062437,-0.2517960848,9.5893819790
1520531831077438058,0.1054377136,0.0344922011,-0.0161931816,-0.2632550302,-0.2541925861,9.5919310016
1520531831082454058,0.1192539585,0.0310024587,-0.0167866202,-0.2584447593,-0.2314092927,9.6360234342
1520531831087470058,0.1310597697,0.0278047700,-0.0179151937,-0.1814804257,-0.2038350572,9.6515174312
1520531831092485058,0.1441205305,0.0216857156,-0.0160923268,-0.2043292123,-0.2146255415,9.6157238887
1520531831097500058,0.1571793976,0.0135240558,-0.0132028380,-0.2139497540,-0.1978368263,9.6797190759
1520531831102517058,0.1669762177,0.0082720476,-0.0092028673,-0.2019240768,-0.2146257288,9.6505647972
1520531831107533058,0.1807907887,0.0027389713,-0.0084591380,-0.2115446185,-0.2553957539,9.6797517941
1520531831112548058,0.1918479803,0.0024504620,-0.0079408051,-0.1995189414,-0.2314138821,9.6726384930
1520531831117563058,0.2018986985,0.0004096095,-0.0060812144,-0.2319882697,-0.2493984596,9.6869177971
1520531831122580058,0.2111941168,-0.0010414850,-0.0069212362,-0.2043292123,-0.1990367160,9.6714915971
1520531831127596058,0.2199904108,-0.0007481114,-0.0063942567,-0.1490110975,-0.2110324286,9.6628298502
1520531831132612058,0.2267807090,0.0009933845,-0.0028764230,-0.0504005450,-0.2206332321,9.6688522540
1520531831137627058,0.2297970320,-0.0025202592,0.0038549466,-0.0359697325,-0.2326257602,9.7407764119
1520531831142643058,0.2340699393,-0.0051556148,0.0092379225,-0.0864775764,-0.1870544904,9.7563314608
1520531831147657058,0.2348153010,-0.0112736661,0.0089192916,-0.1249597432,-0.2206274252,9.7823059311
1520531831152675058,0.2328005979,-0.0147725249,0.0094374402,-0.1249597432,-0.2470085145,9.7939530961
1520531831157690058,0.2292769610,-0.0179754909,0.0080667909,-0.1237571755,-0.2566017315,9.7939507458
1520531831162707058,0.2239951144,-0.0197185813,0.0053577946,-0.1586316392,-0.3033654919,9.8326865471
1520531831167721058,0.2174631090,-0.0168000116,0.0026867013,-0.1574290715,-0.3321449557,9.8594322172
1520531831172737058,0.2081665539,-0.0135889550,-0.0007886726,-0.2223677280,-0.3321398981,9.8647128660
1520531831177753058,0.1978644585,-0.0080355612,-0.0085731293,-0.1935061029,-0.3213498821,9.8400163976
1520531831182769058,0.1845473926,-0.0021926927,-0.0160792164,-0.1730624517,-0.3177540531,9.8514353431
1520531831187784058,0.1729964949,0.0062616708,-0.0192398284,-0.1718598840,-0.2673902489,9.8699688291
1520531831192800058,0.1566644115,0.0112233768,-0.0245826168,-0.1574290715,-0.1786549815,9.8871739966
1520531831197815058,0.1395801448,0.0164718013,-0.0282985067,-0.1021109567,-0.1474816389,9.9551716545
1520531831202832058,0.1240039730,0.0196709269,-0.0282451159,-0.0047029719,-0.0635493957,10.0366539119
1520531831207848058,0.1059100574,0.0179089750,-0.0257899373,-0.0071081073,-0.0119861702,10.0540591998
1520531831212863058,0.0873096277,0.0129401396,-0.0228171873,-0.0071081073,0.0299837446,10.1295576299
1520531831217879058,0.0697146559,0.0076781282,-0.0190368897,-0.0155260813,0.0383783832,10.1307935239
1520531831222895058,0.0491077010,0.0032810762,-0.0122683173,0.0554254137,0.0719487891,10.1591237829
1520531831227911058,0.0297534963,-0.0054935358,-0.0028299658,0.0770716326,0.0611548395,10.1043028501
1520531831232926058,0.0124027744,-0.0195130101,0.0068351823,0.1131486640,0.0407666425,10.1214037365
1520531831237943058,-0.0084611168,-0.0303308182,0.0173429561,0.0602356846,0.0215845167,10.0917217256
1520531831242958058,-0.0283242938,-0.0420114596,0.0237840053,0.0133355438,-0.0239791666,10.0271425963
1520531831247972058,-0.0461792285,-0.0525133920,0.0256309329,-0.0299568939,-0.0527551650,9.9578634052
1520531831252989058,-0.0645318329,-0.0592267940,0.0272371481,-0.0528056804,-0.0815327557,9.9430059940
1520531831258005058,-0.0821239859,-0.0612784766,0.0291480784,-0.0215389199,-0.1211068248,9.8997409244
1520531831263021058,-0.1009737738,-0.0630341679,0.0291697441,0.0061201375,-0.1402952257,9.8948418417
1520531831268037058,-0.1198202608,-0.0618738287,0.0284020030,0.0181458146,-0.1295038985,9.9342271616
1520531831273053058,-0.1371586059,-0.0615921513,0.0295186136,-0.0179312168,-0.1774667057,9.9694894055
1520531831278068058,-0.1555046043,-0.0610100136,0.0271222175,-0.0143235136,-0.1654755824,10.0310362265
1520531831283084058,-0.1741010627,-0.0586745682,0.0228458054,-0.0864775764,-0.1918510521,10.0782500135
1520531831288100058,-0.1914401957,-0.0575121814,0.0215341721,-0.0407800033,-0.1726683644,10.0754622240
1520531831293115058,-0.2090234493,-0.0484708559,0.0159542946,-0.0540082481,-0.1990484235,10.1348860468
1520531831298130058,-0.2253491973,-0.0388469974,0.0106470755,-0.0696416284,-0.1846575208,10.0943491420
1520531831303147058,-0.2409221975,-0.0318533171,0.0082944533,-0.0071081073,-0.1882598124,10.0530689487
1520531831308163058,-0.2534791335,-0.0266162322,0.0094399886,-0.0059055396,-0.1342985870,10.0774096464
1520531831313178058,-0.2657946266,-0.0289565033,0.0110683488,0.0181458146,-0.1175124943,10.0701863108
1520531831318194058,-0.2778514387,-0.0292722813,0.0183932676,0.0433997366,-0.1091204782,10.0525001599
1520531831323210058,-0.2878986482,-0.0287065622,0.0232862088,0.0674510909,-0.1103214918,10.0092679018
1520531831328226058,-0.2964338463,-0.0269834555,0.0314317928,0.0421971689,-0.1163152271,9.9351423417
1520531831333242058,-0.3009493570,-0.0237916528,0.0357933821,0.0073227052,-0.0575546302,9.8331558227
1520531831338257058,-0.3032018100,-0.0179692189,0.0374653197,0.0421971689,-0.0899341378,9.8049564933
1520531831343273058,-0.3057027469,-0.0104000332,0.0396921543,0.0397920335,-0.1235098823,9.7724726142
1520531831348288058,-0.3064502688,-0.0074944961,0.0426917902,-0.0720467638,-0.1043149251,9.6643009433
1520531831353304058,-0.3046904713,-0.0063253550,0.0416152319,-0.0912878472,-0.1594738861,9.6238669754
1520531831358321058,-0.3026895759,-0.0103908390,0.0367105488,-0.1971138060,-0.2961676522,9.7168396975
1520531831363335058,-0.2999360582,-0.0147444984,0.0307200588,0.0229560855,-0.3501461111,9.6368866475
1520531831368351058,-0.2923870139,-0.0057013401,0.0280695138,0.0458048720,-0.2997839928,9.6145344040
1520531831373368058,-0.2843377517,0.0001302294,0.0278284945,0.0373868980,-0.2937876351,9.5193146885
1520531831378383058,-0.2745144922,0.0135231888,0.0333234721,0.0999204191,-0.2638139948,9.5395953832
1520531831383398058,-0.2654567416,0.0193442257,0.0371387743,0.0987178514,-0.2841992884,9.5465998308
1520531831388414058,-0.2541350590,0.0263295016,0.0417704060,0.1263769088,-0.2602186341,9.5463072277
1520531831393430058,-0.2405468060,0.0359337537,0.0480411204,0.1035281222,-0.2518228716,9.5767371812
1520531831398445058,-0.2282248639,0.0362037390,0.0577601263,0.1095409608,-0.2877975526,9.5871730317
1520531831403462058,-0.2151489312,0.0388152939,0.0637078742,0.0578305492,-0.3201703166,9.6353558234
1520531831408478058,-0.2025816179,0.0391050454,0.0661216742,0.0650459554,-0.3357597041,9.6457600901
1520531831413493058,-0.1895142199,0.0355982537,0.0717521913,0.0674510909,-0.3405564531,9.6817678199
1520531831418510058,-0.1734300913,0.0332596384,0.0768449084,0.0433997366,-0.3717322309,9.5902229515
1520531831423525058,-0.1583581480,0.0277241407,0.0786684876,0.0650459554,-0.3909201636,9.5551666512
1520531831428541058,-0.1430306366,0.0259796540,0.0794383167,0.0277663563,-0.4352854558,9.5915992361
1520531831433557058,-0.1234356163,0.0224958183,0.0774814140,0.0157406792,-0.4412802213,9.5254799280
1520531831438572058,-0.1073551296,0.0210473821,0.0766287906,-0.0035004042,-0.4640623908,9.4919872517
1520531831443588058,-0.0867474378,0.0219296090,0.0765971885,0.0025124344,-0.4820499654,9.5175134335
1520531831448602058,-0.0663931068,0.0234039762,0.0730534027,-0.0131209459,-0.4964384329,9.4735181610
1520531831453620058,-0.0477968994,0.0257525361,0.0692490073,-0.0215389199,-0.5144248837,9.4480504695
1520531831458635058,-0.0261950952,0.0199398686,0.0667294944,-0.0047029719,-0.5264175991,9.4746276031
1520531831463650058,-0.0030755990,0.0214124051,0.0642627582,0.0542228460,-0.5132316438,9.4693926167
1520531831468666058,0.0205386658,0.0179352436,0.0604045666,0.0109304084,-0.5084317104,9.4779443291
1520531831473682058,0.0361138262,0.0141540774,0.0600761838,0.0241586532,-0.5384112512,9.5034119740
1520531831478698058,0.0569635804,0.0092130828,0.0583763779,-0.0119183782,-0.5599929690,9.5247027649
1520531831483715058,0.0760534979,0.0048592672,0.0547904640,-0.0576159513,-0.5623876908,9.5286363276
1520531831488729058,0.0951465832,0.0028365277,0.0512223348,-0.0095132428,-0.5947682286,9.5328482733
1520531831493746058,0.1127330633,0.0016873511,0.0476636752,-0.0083106751,-0.6235476925,9.5224053368
1520531831498760058,0.1303170814,-0.0006244499,0.0430139397,-0.0540082481,-0.6151501504,9.5611926941
1520531831503777058,0.1443770706,-0.0049671230,0.0345675341,-0.0564133836,-0.6091542610,9.6030474399
1520531831508793058,0.1586925378,-0.0063965807,0.0264134386,-0.0083106751,-0.6223485520,9.5944570927
1520531831513808058,0.1732560891,-0.0113276533,0.0201260206,-0.0167286490,-0.6031616496,9.5991688944
1520531831518823058,0.1875656600,-0.0174207204,0.0124774475,-0.0696416284,-0.6007592478,9.6043301541
1520531831523840058,0.2006204499,-0.0232272657,0.0064567064,-0.0696416284,-0.6151489328,9.6241006333
1520531831528855058,0.2099069453,-0.0281611344,0.0004496355,-0.0419825710,-0.6319390529,9.6587121064
1520531831533871058,0.2181895666,-0.0316362889,-0.0063560908,-0.0612236544,-0.6403315373,9.6728533002
1520531831538888058,0.2297368262,-0.0377369948,-0.0115646168,-0.0311594616,-0.6427321597,9.6597794289
1520531831543903058,0.2357552450,-0.0450097755,-0.0151484920,-0.0059055396,-0.6403358457,9.6850984511
1520531831548918058,0.2412731362,-0.0499480346,-0.0200663785,-0.0359697325,-0.6127532745,9.7713628353
1520531831553934058,0.2457881136,-0.0554796547,-0.0211992017,-0.0564133836,-0.6247430865,9.7471684916
1520531831558951058,0.2500528469,-0.0607221741,-0.0215176974,-0.0347671647,-0.5923679809,9.8224655854
1520531831563965058,0.2545684007,-0.0642068181,-0.0253404180,0.0385894657,-0.5552003411,9.8798225252
1520531831568982058,0.2550598252,-0.0717797052,-0.0264813353,0.0530202783,-0.5516040437,9.9133807312
1520531831573997058,0.2560595633,-0.0764443776,-0.0254365879,0.1035281222,-0.5108372030,9.9512001118
1520531831579014058,0.2568086572,-0.0825748122,-0.0211559386,0.1588462370,-0.4640750349,10.0354525836
1520531831584029058,0.2562986578,-0.0919167963,-0.0147330423,0.1841001590,-0.4328993507,10.0642299734
1520531831589045058,0.2532724200,-0.1015416799,-0.0118247986,0.1528333985,-0.4221046518,10.0935773797
1520531831594061058,0.2497489517,-0.1073794900,-0.0086161755,0.1359974505,-0.4520818511,10.1460669619
1520531831599076058,0.2469846567,-0.1103075300,-0.0037634462,0.1335923151,-0.4904541573,10.1798299656
1520531831604092058,0.2414559021,-0.1120652875,-0.0010610579,0.0638433877,-0.4676650570,10.2118645281
1520531831609107058,0.2344208561,-0.1106089364,-0.0018485119,0.0578305492,-0.5024396610,10.2561184345
1520531831614122058,0.2271427833,-0.1027407672,-0.0031276831,0.0277663563,-0.5288184088,10.3064089764
1520531831619139058,0.2181102370,-0.0919616272,-0.0035697187,-0.0275517585,-0.5515977685,10.3546175286
1520531831624155058,0.2093283308,-0.0811802035,-0.0048238587,-0.0275517585,-0.5695848748,10.3987965389
1520531831629170058,0.1997997026,-0.0639835165,-0.0079215119,-0.0419825710,-0.5779777339,10.4152152004
1520531831634185058,0.1880081970,-0.0476618692,-0.0110216339,-0.0948955504,-0.5479951023,10.4528895959
1520531831639203058,0.1752119351,-0.0313420726,-0.0135787972,-0.0756544670,-0.5372043370,10.4910425414
1520531831644219058,0.1614085021,-0.0150161140,-0.0185690067,-0.0371723002,-0.5228176490,10.4987889552
1520531831649233058,0.1468527094,0.0013044503,-0.0216639947,-0.0119183782,-0.5084299308,10.5763927619
1520531831654249058,0.1330464105,0.0132494430,-0.0228999079,0.0650459554,-0.4772582741,10.6209368497
1520531831659265058,0.1179743771,0.0179071450,-0.0233774269,0.0999204191,-0.4568756030,10.6775225780
1520531831664280058,0.1001333050,0.0190671496,-0.0238764890,0.1191615025,-0.4556779611,10.6901177113
1520531831669297058,0.0832945232,0.0176029020,-0.0235857881,0.1167563671,-0.4280975441,10.7203299694
1520531831674313058,0.0677099068,0.0155614767,-0.0251956882,0.1299846119,-0.4340942765,10.7388013638
1520531831679329058,0.0508741162,0.0161361924,-0.0246188798,0.1600488048,-0.4065163882,10.7222118272
1520531831684344058,0.0332854367,0.0158291748,-0.0213418815,0.1564411016,-0.4101135285,10.7315476020
1520531831689360058,0.0184613972,0.0161074661,-0.0186066628,0.1768847527,-0.4125134016,10.7197295152
1520531831694376058,0.0018810768,0.0166684401,-0.0128899491,0.1925181330,-0.4005232149,10.7079442165
1520531831699391058,-0.0144469333,0.0178115531,-0.0068987100,0.1744796173,-0.4484874270,10.7058422780
1520531831704407058,-0.0300165541,0.0242086241,-0.0041154063,0.1949232684,-0.5168400233,10.6917642170
1520531831709422058,-0.0465910174,0.0311895273,-0.0018668814,0.2021386747,-0.5636070618,10.6824424392
1520531831714438058,-0.0624136542,0.0358360074,0.0017151882,0.1732770496,-0.6175661330,10.6374523666
1520531831719455058,-0.0782341348,0.0422315231,0.0050400504,0.1744796173,-0.6427481755,10.6130601946
1520531831724470058,-0.0912930569,0.0462955888,0.0088830858,0.1997335393,-0.6871183381,10.6151819419
1520531831729486058,-0.1038552736,0.0471597206,0.0108069124,0.2358105707,-0.7111039563,10.6311241924
1520531831734502058,-0.1199382262,0.0459820539,0.0129922576,0.2105566487,-0.6895174619,10.6197275109
1520531831739517058,-0.1332660811,0.0401527873,0.0116198027,0.1841001590,-0.6595368908,10.6071722052
1520531831744533058,-0.1425713043,0.0366605429,0.0086343896,0.1708719142,-0.6331547712,10.5933295079
1520531831749548058,-0.1538874003,0.0334618090,0.0045727498,0.1949232684,-0.5552125169,10.5616415129
1520531831754565058,-0.1619276848,0.0352106078,0.0032482939,0.1696693465,-0.5468165670,10.4956369284
1520531831759580058,-0.1689624172,0.0390075048,-0.0010384720,0.1432128568,-0.4916540470,10.5039756577
1520531831764595058,-0.1757424203,0.0448420066,-0.0044985054,0.1420102891,-0.4245020897,10.4074639315
1520531831769612058,-0.1797603318,0.0506848758,-0.0106691318,0.1576436693,-0.3849316733,10.3735710029
1520531831774628058,-0.1827716837,0.0576944053,-0.0171032785,0.1732770496,-0.3417638356,10.3245666949
1520531831779643058,-0.1862891538,0.0617884358,-0.0230176309,0.1528333985,-0.3165802945,10.2073645854
1520531831784659058,-0.1870428229,0.0647143691,-0.0275932801,0.1372000182,-0.3081850940,10.0947806022
1520531831789675058,-0.1880435724,0.0687970008,-0.0289130195,0.1624539402,-0.3033904991,10.0073693221
1520531831794690058,-0.1890465174,0.0728869168,-0.0329382179,0.1720744819,-0.3429628824,9.9120184656
1520531831799706058,-0.1857760650,0.0769741360,-0.0353480752,0.1648590756,-0.3921270778,9.8249758422
1520531831804722058,-0.1819995415,0.0828062171,-0.0363927979,0.1432128568,-0.4364935876,9.7740954648
1520531831809737058,-0.1799843092,0.0871814148,-0.0377159149,0.1468205599,-0.4484852728,9.7124784135
1520531831814753058,-0.1762115218,0.0915624007,-0.0409361202,0.2081515133,-0.4832651217,9.6375381534
1520531831819770058,-0.1711881797,0.0915731110,-0.0441920054,0.1973284039,-0.4940565426,9.6062761362
1520531831824785058,-0.1661709104,0.0866280990,-0.0466740454,0.1780873205,-0.5108430099,9.5483725901
1520531831829800058,-0.1614071431,0.0787633159,-0.0470134823,0.1480231276,-0.5576071450,9.4743336077
1520531831834816058,-0.1568869319,0.0764340119,-0.0470396680,0.1287820442,-0.5444151017,9.4117522523
1520531831839833058,-0.1496004969,0.0758555549,-0.0475987410,0.0987178514,-0.5372179177,9.3469578012
1520531831844847058,-0.1433106401,0.0793458894,-0.0443371813,0.0049175698,-0.5120286633,9.3315762242
1520531831849864058,-0.1372721213,0.0845924454,-0.0440378212,0.0097278406,-0.4424788934,9.2989215515
1520531831854880058,-0.1304811566,0.0892587130,-0.0445559452,-0.0010952688,-0.4136986803,9.2548373627
1520531831859895058,-0.1221825793,0.0921699799,-0.0423847490,0.0037150021,-0.3537420338,9.3023799776
1520531831864911058,-0.1151461690,0.0918798952,-0.0418589485,0.0253612209,-0.3045789623,9.3648771172
1520531831869927058,-0.1071014937,0.0901165279,-0.0351235748,0.0433997366,-0.2805975587,9.3333002678
1520531831874942058,-0.0985597211,0.0839811326,-0.0278813890,0.0337791949,-0.2074492436,9.3275118588
1520531831879958058,-0.0902688474,0.0796005020,-0.0230603110,0.0446023043,-0.1367008016,9.3215268025
1520531831884975058,-0.0822231606,0.0784191753,-0.0160499452,0.0470074397,-0.1163156017,9.3272942334
1520531831889990058,-0.0701580138,0.0757803159,-0.0082465247,0.0325766272,-0.0599548779,9.3308661670
1520531831895006058,-0.0621117546,0.0751824866,-0.0015022586,0.0614382523,-0.0527622832,9.3003624868
1520531831900020058,-0.0520544854,0.0763395796,0.0030872450,0.0662485231,-0.0383729727,9.2956530587
1520531831905038058,-0.0392408914,0.0719629065,0.0070882843,0.0854896066,-0.0287813479,9.3163750142
1520531831910053058,-0.0279374701,0.0643738569,0.0135025830,0.1059332577,-0.0036009912,9.2626928502
1520531831915068058,-0.0158730720,0.0608593871,0.0218404260,0.0975152837,0.0299755962,9.2592556123
1520531831920083058,-0.0058322529,0.0515339214,0.0236444397,0.1047306900,0.0587544044,9.2661301815
1520531831925101058,0.0049641329,0.0427886065,0.0265336829,0.1083383931,0.0635506851,9.1986860396
1520531831930116058,0.0200381853,0.0378315072,0.0299849837,0.1059332577,0.0983259447,9.1940269631
1520531831935132058,0.0300844186,0.0334639491,0.0302035143,0.0987178514,0.1450929832,9.2219430441
1520531831940147058,0.0401299031,0.0282207806,0.0309564676,0.0722613617,0.1906623798,9.2674797347
1520531831945170058,0.0514315328,0.0238573569,0.0298199351,0.0734639294,0.2458227456,9.2139556181
1520531831950179058,0.0627374279,0.0218213673,0.0300539169,0.0566279814,0.3033827972,9.2733327023
1520531831955194058,0.0735418701,0.0209521757,0.0297566326,0.0542228460,0.3129761079,9.1873481051
1520531831960210058,0.0838474548,0.0229973609,0.0292119668,0.0157406792,0.2985894200,9.2063310022
1520531831965226058,0.0921457773,0.0291291546,0.0257261531,0.0265637886,0.2997877174,9.2376023741
1520531831970242058,0.0986879091,0.0364214267,0.0238757741,0.0025124344,0.3057852928,9.3029106900
1520531831975258058,0.1059824045,0.0451825716,0.0177063761,-0.0383748679,0.3021910559,9.3184200413
1520531831980274058,0.1090067487,0.0527648498,0.0158647544,0.0037150021,0.2722092672,9.3284988934
1520531831985290058,0.1115280561,0.0603483880,0.0134829743,0.0157406792,0.2614160668,9.3760402691
1520531831990305058,0.1137979824,0.0699809889,0.0076001259,0.0133355438,0.2961913264,9.3795162002
1520531831995320058,0.1170725708,0.0772741664,0.0049441767,-0.0047029719,0.3189763994,9.4040745816
1520531832000337058,0.1178365428,0.0848511879,0.0047300308,0.0205509501,0.3237709942,9.4479855684
1520531832005353058,0.1180937850,0.0906855327,0.0023391127,0.0506151429,0.3489506016,9.4604519693
1520531832010368058,0.1178509346,0.0973894637,0.0015790727,0.0265637886,0.3825284066,9.4432211696
1520531832015382058,0.1165997213,0.1017619246,0.0008031149,-0.0119183782,0.3921245272,9.4122084900
1520531832020399058,0.1150989263,0.1078847796,-0.0007706753,0.0049175698,0.4065129010,9.4375977541
1520531832025414058,0.1130928128,0.1146018615,-0.0066678203,-0.0936929827,0.3993257386,9.3874302508
1520531832030431058,0.1118415603,0.1207306424,-0.0104064444,-0.1057186598,0.4209112028,9.3561483665
1520531832035447058,0.1128546827,0.1294856838,-0.0152114449,-0.1057186598,0.4269069049,9.3968175582
1520531832040462058,0.1113501986,0.1353280806,-0.0208456466,-0.0973006858,0.4640796024,9.3874022216
1520531832045477058,0.1088346268,0.1379699529,-0.0283962567,-0.0960981181,0.4520881045,9.3839157781
1520531832050495058,0.1068204256,0.1414941884,-0.0389171358,-0.1369854203,0.4496930081,9.3355060426
1520531832055509058,0.1045587479,0.1458837378,-0.0461843282,-0.1538213683,0.5000582171,9.3274857935
1520531832060526058,0.1015378498,0.1461928801,-0.0532106978,-0.0948955504,0.5132441725,9.3489801181
1520531832065540058,0.0980123272,0.1438742657,-0.0583623203,-0.0900852795,0.5228369212,9.3303296399
1520531832070557058,0.0927276658,0.1403843250,-0.0616257469,-0.1081237952,0.4892623942,9.3351865331
1520531832075573058,0.0871888005,0.1342696398,-0.0640970769,-0.1069212275,0.4748726155,9.3502967315
1520531832080589058,0.0801495674,0.1298859171,-0.0603297124,-0.0840724410,0.4017232701,9.3757128321
1520531832085605058,0.0728589022,0.1249171415,-0.0557546896,-0.0756544670,0.3669475422,9.3512597845
1520531832090620058,0.0665685475,0.1158671912,-0.0504010193,-0.1045160921,0.3021962072,9.3237123953
1520531832095635058,0.0592760319,0.1085629689,-0.0442205058,-0.1177443369,0.2662230248,9.2983090641
1520531832100651058,0.0494681522,0.0995094549,-0.0380486636,-0.1742650194,0.1834867376,9.2954534543
1520531832105667058,0.0384033903,0.0930910211,-0.0367243062,-0.2283805665,0.1211356503,9.2786088281
1520531832110683058,0.0285915157,0.0843434602,-0.0359611589,-0.2331908374,0.0635772846,9.2694146250
1520531832115698058,0.0195321302,0.0747227695,-0.0354766269,-0.2536344885,0.0060201365,9.2801290348
1520531832120715058,0.0079516647,0.0604447693,-0.0371873641,-0.3005346293,-0.0515349511,9.3050466834
1520531832125730058,-0.0016184965,0.0467532395,-0.0399795726,-0.3221808481,-0.0719186524,9.3401415718
1520531832130746058,-0.0109398678,0.0307285467,-0.0419783948,-0.3606630150,-0.0935001829,9.3777257882
1520531832135762058,-0.0212651996,0.0167482507,-0.0458536098,-0.3558527441,-0.1054919618,9.3486370625
1520531832140778058,-0.0298305614,0.0027657303,-0.0486499083,-0.3149654419,-0.0947028824,9.3400935589
1520531832145792058,-0.0368860641,-0.0103449596,-0.0503601542,-0.2836986813,-0.0719216496,9.3711448967
1520531832150809058,-0.0444457053,-0.0249142260,-0.0515394904,-0.3089526033,-0.0107635211,9.3655203469
1520531832155824058,-0.0520052994,-0.0383128551,-0.0546037555,-0.2836986813,-0.0167611901,9.3722532511
1520531832160841058,-0.0570482552,-0.0496737218,-0.0565749426,-0.2728755719,0.0336018648,9.4336924229
1520531832165855058,-0.0613387260,-0.0633711967,-0.0564009474,-0.2247728634,0.0719706119,9.4541053930
1520531832170873058,-0.0643690958,-0.0747385601,-0.0556704094,-0.2560396239,0.1235360853,9.4787644659
1520531832175889058,-0.0658938760,-0.0890250054,-0.0528005354,-0.2211651602,0.1307282117,9.4621479879
1520531832180904058,-0.0714419935,-0.1068169246,-0.0472444118,-0.2235702957,0.1738974542,9.4830478929
1520531832185920058,-0.0744741746,-0.1222760547,-0.0419457168,-0.2392036759,0.1691021101,9.4866911679
1520531832190935058,-0.0777550553,-0.1345242259,-0.0387864682,-0.2175574571,0.1295287903,9.4586276102
1520531832195950058,-0.0807802424,-0.1453233888,-0.0326405661,-0.2163548894,0.0731690967,9.5005080464
1520531832200967058,-0.0843093875,-0.1558255366,-0.0286558746,-0.2199625925,-0.0287575583,9.4564810851
1520531832205982058,-0.0878333851,-0.1625396856,-0.0246422830,-0.2247728634,-0.0875150644,9.4240451723
1520531832210999058,-0.0890969242,-0.1698342607,-0.0211784298,-0.1995189414,-0.1450757716,9.3959640395
1520531832216013058,-0.0918690052,-0.1780050369,-0.0171773538,-0.2716730042,-0.2410013859,9.3746791549
1520531832221030058,-0.0931281887,-0.1820943822,-0.0136890468,-0.2223677280,-0.3021613875,9.3649617322
1520531832226045058,-0.0923735944,-0.1838525920,-0.0099161429,-0.2103420508,-0.3297425538,9.3160615304
1520531832231062058,-0.0921245890,-0.1876499620,-0.0064284131,-0.2079369154,-0.4160808517,9.3312301841
1520531832236076058,-0.0916243280,-0.1911543922,-0.0034800187,-0.1634419100,-0.4472619681,9.3308274998
1520531832241093058,-0.0886087538,-0.1955436462,0.0037857735,-0.1273648786,-0.4784424289,9.3258581751
1520531832246107058,-0.0840910164,-0.2034260102,0.0099399048,-0.1129340661,-0.4712487103,9.3861421841
1520531832251125058,-0.0773108838,-0.2101390362,0.0150165443,-0.0888827118,-0.4820428473,9.4486743805
1520531832256140058,-0.0700278478,-0.2174382765,0.0214405337,-0.0888827118,-0.4532634771,9.4556191801
1520531832261155058,-0.0612386929,-0.2267802599,0.0291988907,-0.0552108159,-0.4208893082,9.5261506476
1520531832266173058,-0.0509424898,-0.2355337846,0.0350650722,-0.0540082481,-0.3789194870,9.5772323496
1520531832271187058,-0.0373771164,-0.2434155179,0.0422845850,-0.0672364930,-0.3369485419,9.6005630574
1520531832276203058,-0.0230592970,-0.2518775395,0.0486866138,-0.0600210867,-0.2685980997,9.5888047352
1520531832281219058,-0.0115044828,-0.2571252164,0.0513305879,-0.0311594616,-0.2146390285,9.5814983299
1520531832286235058,0.0028195426,-0.2600465614,0.0561515800,-0.0131209459,-0.1354971655,9.6126234644
1520531832291251058,0.0206603912,-0.2626693161,0.0588038938,0.0193483823,-0.0935297795,9.5553214473
1520531832296265058,0.0387586506,-0.2620925701,0.0636445621,-0.0022978365,-0.1043203574,9.5462455107
1520531832301282058,0.0545987881,-0.2574307708,0.0660856409,-0.0191337845,-0.1390941185,9.5499297242
1520531832306298058,0.0739553960,-0.2530546071,0.0668946872,-0.0203363522,-0.1486871482,9.5673829433
1520531832311313058,0.0925654072,-0.2446051828,0.0699006240,-0.0167286490,-0.1390943058,9.5336362987
1520531832316328058,0.1086638846,-0.2341126809,0.0713035143,-0.0071081073,-0.1618787231,9.5114841406
1520531832321345058,0.1262755652,-0.2201251591,0.0735419189,-0.0155260813,-0.1858608759,9.5348323418
1520531832326361058,0.1453942036,-0.2064269743,0.0752342083,-0.0167286490,-0.2362246801,9.5186231438
1520531832331376058,0.1612413351,-0.1971052079,0.0785224942,0.0061201375,-0.2937851999,9.5254297397
1520531832336392058,0.1770885137,-0.1866128044,0.0799258512,0.0758690649,-0.3501502321,9.5143465098
1520531832341409058,0.1926852756,-0.1746599345,0.0799880609,0.0542228460,-0.4089064270,9.5157766424
1520531832346422058,0.2065157712,-0.1691233125,0.0818984510,0.0458048720,-0.4496765458,9.5217090551
1520531832351438058,0.2205972168,-0.1627073393,0.0819212223,0.1023255545,-0.4496809478,9.4967538944
1520531832356454058,0.2324087048,-0.1612406903,0.0800165805,0.1672642110,-0.4676731118,9.5112472329
1520531832361470058,0.2452278932,-0.1589038644,0.0797400164,0.1552385339,-0.4868584219,9.5218422884
1520531832366486058,0.2557832360,-0.1583169602,0.0797248602,0.1949232684,-0.5084460403,9.4842884631
1520531832371502058,0.2678454034,-0.1586043473,0.0799707803,0.2586593572,-0.5300355319,9.4209333697
1520531832376517058,0.2784031571,-0.1594889344,0.0853554266,0.3151800397,-0.5324382148,9.4447905938
1520531832381534058,0.2849382400,-0.1609542236,0.0893903648,0.3175851752,-0.5192478575,9.4087278584
1520531832386549058,0.2949933099,-0.1612533248,0.0936982071,0.2779004406,-0.5024568008,9.3939898831
1520531832391565058,0.3040433177,-0.1609678655,0.0972007248,0.2875209823,-0.4976609883,9.3427572313
1520531832396580058,0.3135927124,-0.1627204441,0.1001456557,0.2803055761,-0.4844698817,9.3277067275
1520531832401597058,0.3236465121,-0.1618445376,0.1009452937,0.2766978729,-0.5072532688,9.3393854996
1520531832406613058,0.3314308403,-0.1647487749,0.0984736813,0.2442285447,-0.5156447229,9.3629526006
1520531832411628058,0.3394705563,-0.1656175926,0.0976404392,0.2117592164,-0.5791966366,9.3551956045
1520531832416643058,0.3512798920,-0.1644365006,0.0935692072,0.2201771904,-0.5839938539,9.3365240431
1520531832421660058,0.3578101528,-0.1629588073,0.0868045404,0.1973284039,-0.5947843381,9.3983505928
1520531832426676058,0.3663536623,-0.1600263175,0.0811294388,0.1588462370,-0.6103701665,9.4219832351
1520531832431691058,0.3749000375,-0.1527128618,0.0717000410,0.1552385339,-0.6211621494,9.4696767765
1520531832436706058,0.3836992994,-0.1427702909,0.0598552712,0.1311871796,-0.6223594166,9.5408028282
1520531832441722058,0.3917404425,-0.1354482909,0.0471802561,0.1420102891,-0.5935808894,9.6185330634
1520531832446738058,0.4000356523,-0.1275499793,0.0369441335,0.1636565079,-0.5492143796,9.6903320320
1520531832451754058,0.4073249610,-0.1208205133,0.0277831690,0.1949232684,-0.5048486191,9.7376323371
1520531832456770058,0.4123542543,-0.1120485995,0.0172892371,0.2297977321,-0.4616822800,9.8232494469
1520531832461786058,0.4204022973,-0.1024079066,0.0092312869,0.2261900290,-0.4592837181,9.8964972925
1520531832466801058,0.4259348430,-0.0951014598,0.0019718570,0.2911286855,-0.3957343333,9.9480997224
1520531832471818058,0.4317148611,-0.0901238054,-0.0061174621,0.3512570711,-0.3777519100,10.0195498547
1520531832476833058,0.4359831698,-0.0883534284,-0.0136873430,0.3897392379,-0.3273910093,10.0807198102
1520531832481848058,0.4412518321,-0.0909570677,-0.0199397075,0.4005623473,-0.2530451460,10.0979741250
1520531832486863058,0.4450108549,-0.0944332660,-0.0270075787,0.4294239725,-0.2074800578,10.1743502697
1520531832491880058,0.4475120193,-0.0990762231,-0.0338114627,0.4294239725,-0.1571161600,10.1812740212
1520531832496895058,0.4490084235,-0.1051845094,-0.0376485904,0.4522727590,-0.1163471651,10.2251733378
1520531832501912058,0.4482422130,-0.1124614052,-0.0406787722,0.4390445142,-0.1067530115,10.2415627541
1520531832506928058,0.4462223742,-0.1153578273,-0.0474609167,0.4270188370,-0.0671804409,10.2706948153
1520531832511944058,0.4401875994,-0.1162263311,-0.0504323894,0.4522727590,-0.0228142121,10.3285129413
1520531832516958058,0.4351574476,-0.1176779385,-0.0531396293,0.4378419465,0.0167585458,10.3785870038
1520531832521974058,0.4288714642,-0.1176687450,-0.0574566956,0.4582855976,0.0815105364,10.4189999119
1520531832526990058,0.4188186368,-0.1162062910,-0.0609440079,0.4474624882,0.1042950474,10.4922981091
1520531832532006058,0.4077584579,-0.1164932664,-0.0641722459,0.4282214047,0.1546604438,10.5389220359
1520531832537022058,0.3944415174,-0.1129924006,-0.0676379292,0.4198034308,0.2038258568,10.6144953854
1520531832542038058,0.3793722596,-0.1048315284,-0.0705236842,0.4173982953,0.2398002568,10.6377265945
1520531832547052058,0.3643004928,-0.0990039178,-0.0726155863,0.4354368110,0.2553876774,10.6305629535
1520531832552070058,0.3477262961,-0.0908531059,-0.0719814444,0.4378419465,0.2877642815,10.7013987524
1520531832557084058,0.3276324613,-0.0847477348,-0.0697330546,0.4630958684,0.3021519997,10.7499489602
1520531832562100058,0.3052719307,-0.0789193372,-0.0731641511,0.4510701913,0.3345297277,10.7395751431
1520531832567116058,0.2819124422,-0.0722339337,-0.0703641560,0.4655010038,0.3417234464,10.7626705454
1520531832572132058,0.2608134983,-0.0667146391,-0.0670361618,0.4763241133,0.3489174460,10.7520988883
1520531832577147058,0.2359368078,-0.0646817808,-0.0680565782,0.4570830299,0.3321309786,10.7848425707
1520531832582164058,0.2108127271,-0.0623692913,-0.0647455704,0.5003754675,0.3405215898,10.7437379649
1520531832587180058,0.1844338223,-0.0594774388,-0.0603455993,0.5148062801,0.3597067127,10.7482273706
1520531832592196058,0.1588067990,-0.0548224151,-0.0613446078,0.5148062801,0.3764946786,10.7528595756
1520531832597210058,0.1334315057,-0.0530957068,-0.0569553959,0.5087934415,0.3776942873,10.6878368701
1520531832602227058,0.1067998515,-0.0507845365,-0.0533710419,0.5003754675,0.3740975217,10.6890844575
1520531832607242058,0.0794092083,-0.0481640662,-0.0565467120,0.5087934415,0.3657028831,10.7052807229
1520531832612259058,0.0520195216,-0.0490591495,-0.0527148659,0.4823369518,0.3932851733,10.6834306042
1520531832617273058,0.0248799028,-0.0505354465,-0.0494290245,0.4979703321,0.3920848153,10.6356317056
1520531832622290058,-0.0025125556,-0.0534702215,-0.0456127399,0.4979703321,0.4136693430,10.6042327708
1520531832627305058,-0.0281402494,-0.0532034480,-0.0401519932,0.4510701913,0.4400540850,10.5291241855
1520531832632322058,-0.0530116238,-0.0500174349,-0.0365642370,0.4522727590,0.4508462552,10.5012105015
1520531832637338058,-0.0761229813,-0.0456630092,-0.0337824932,0.4198034308,0.4628401882,10.4666505260
1520531832642353058,-0.0979679926,-0.0351941152,-0.0290625770,0.3777135608,0.4388606578,10.3810849371
1520531832647367058,-0.1180588792,-0.0267569394,-0.0270669484,0.3849289671,0.4400592363,10.3496356507
1520531832652384058,-0.1366402988,-0.0162758390,-0.0264112880,0.3969546442,0.4424565806,10.3134897989
1520531832657400058,-0.1554697634,-0.0040494436,-0.0246596388,0.3813212639,0.4760337300,10.2659613210
1520531832662416058,-0.1722856696,0.0105088157,-0.0228939387,0.3753084254,0.4496531090,10.2335055410
1520531832667430058,-0.1865916650,0.0236147790,-0.0224967507,0.3512570711,0.4544515439,10.2151406615
1520531832672447058,-0.1996439341,0.0361450214,-0.0245412556,0.3199903106,0.4556531194,10.1619852017
1520531832677463058,-0.2132020116,0.0466368321,-0.0271414804,0.2971415240,0.4568540394,10.1587199966
1520531832682479058,-0.2245048253,0.0515895808,-0.0284354149,0.2803055761,0.4700458953,10.0914666553
1520531832687495058,-0.2348004599,0.0594631243,-0.0321438985,0.2670773312,0.4568563809,10.0648789627
1520531832692511058,-0.2448409694,0.0696656573,-0.0350234264,0.2682798989,0.4304751979,10.0451365359
1520531832697525058,-0.2558881247,0.0792872127,-0.0387171713,0.2742927375,0.4436652743,10.0566865874
1520531832702542058,-0.2614091678,0.0877483097,-0.0435122601,0.2670773312,0.4604538022,10.0032818251
1520531832707558058,-0.2681888652,0.0929964004,-0.0456240102,0.2935338209,0.4508586183,9.9821150774
1520531832712573058,-0.2732118897,0.0967897144,-0.0482912346,0.3163826074,0.4292723111,9.9621572822
1520531832717589058,-0.2749664456,0.1017498465,-0.0509556340,0.3199903106,0.4220771876,9.9051841294
1520531832722605058,-0.2797425739,0.1011673921,-0.0517628501,0.3320159877,0.4136822680,9.8353466269
1520531832727621058,-0.2802443365,0.1014571229,-0.0512186018,0.3464468003,0.4004905995,9.8096518620
1520531832732636058,-0.2792332527,0.1031941690,-0.0468783958,0.3536622065,0.4052865992,9.7944690829
1520531832737652058,-0.2779764567,0.1011447715,-0.0431086485,0.3296108523,0.4124833149,9.7761018647
1520531832742668058,-0.2769679683,0.1011342389,-0.0390523270,0.3235980137,0.4304708896,9.7296570917
1520531832747683058,-0.2724422606,0.1017136811,-0.0371624605,0.3488519357,0.4100835355,9.7457011797
1520531832752699058,-0.2679179252,0.0981998998,-0.0301633453,0.3428390971,0.4232745485,9.7364496906
1520531832757715058,-0.2638968029,0.0943952654,-0.0234360656,0.3765109931,0.4532504366,9.6907691013
1520531832762730058,-0.2561095383,0.0894323972,-0.0188890462,0.3500545034,0.4568499184,9.7340224308
1520531832767746058,-0.2485728277,0.0838815625,-0.0124521850,0.3440416648,0.4844306164,9.7108111822
1520531832772763058,-0.2405298185,0.0830018184,-0.0092272387,0.3151800397,0.4772380217,9.7227205592
1520531832777778058,-0.2312358548,0.0795066616,-0.0084595468,0.3031543626,0.4868320817,9.7193418231
1520531832782794058,-0.2224424266,0.0754190693,-0.0041782710,0.3091672012,0.4916281751,9.6809278700
1520531832787809058,-0.2108867302,0.0716319572,-0.0028759109,0.2851158469,0.5563836312,9.6845852587
1520531832792825058,-0.1995854102,0.0663914662,-0.0029369289,0.2682798989,0.5336012743,9.6661770437
1520531832797840058,-0.1890350817,0.0637753259,-0.0037881768,0.3151800397,0.5252036386,9.6320265572
1520531832802857058,-0.1764716418,0.0605655493,-0.0003188702,0.2875209823,0.5096169673,9.6509052781
1520531832807872058,-0.1646652582,0.0579513581,-0.0017135435,0.2899261178,0.5192099034,9.6311160661
1520531832812888058,-0.1541168624,0.0550489323,-0.0044608357,0.2935338209,0.5264044649,9.6519925261
1520531832817904058,-0.1430601530,0.0550547212,-0.0050224633,0.3115723366,0.4952254090,9.6460366333
1520531832822920058,-0.1309959196,0.0556385739,-0.0036876903,0.2923312532,0.4856337842,9.6090446623
1520531832827936058,-0.1194348522,0.0571022108,-0.0045096819,0.2995466595,0.4580529925,9.6008663191
1520531832832952058,-0.1101369720,0.0568137407,-0.0042586278,0.2706850343,0.4412672744,9.5988393233
1520531832837967058,-0.0990821953,0.0565332441,-0.0067162998,0.3043569303,0.4232775456,9.5938805460
1520531832842983058,-0.0892822467,0.0553686320,-0.0056612108,0.2887235500,0.3825079888,9.5836131737
1520531832847998058,-0.0817434112,0.0562501099,-0.0072918186,0.3067620657,0.4256756391,9.5787469258
1520531832853015058,-0.0724480400,0.0536283783,-0.0062469115,0.2971415240,0.3885030353,9.6102547026
1520531832858029058,-0.0629012798,0.0518845408,-0.0065485314,0.2935338209,0.3693170695,9.6068220953
1520531832863046058,-0.0541093844,0.0492655260,-0.0065848745,0.2730901698,0.3717169425,9.6163158942
1520531832868062058,-0.0480804550,0.0481045362,-0.0074166059,0.2598619249,0.3357437601,9.5955611388
1520531832873077058,-0.0438072262,0.0507366834,-0.0103805373,0.2514439509,0.3249521519,9.5456814082
1520531832878093058,-0.0370220637,0.0530806159,-0.0141629967,0.2466336801,0.3417404925,9.5736033126
1520531832883109058,-0.0319920805,0.0571670675,-0.0160350292,0.2394182738,0.3261522289,9.5713644565
1520531832888124058,-0.0284761354,0.0574685715,-0.0192858910,0.2658747635,0.3093622025,9.5664747401
1520531832893141058,-0.0259639351,0.0583502656,-0.0217188020,0.2322028675,0.2985725612,9.5772723014
1520531832898156058,-0.0249603197,0.0586485998,-0.0241533589,0.2646721958,0.3057648749,9.5897328323
1520531832903172058,-0.0247179908,0.0539952870,-0.0274359457,0.2875209823,0.2997673932,9.5813812753
1520531832908188058,-0.0229629880,0.0519606551,-0.0290780498,0.3031543626,0.2901730523,9.5603198731
1520531832913203058,-0.0242245002,0.0472936398,-0.0274880102,0.2803055761,0.3093610786,9.6081714618
1520531832918218058,-0.0242326821,0.0417595190,-0.0283418865,0.3067620657,0.2661899628,9.6381717896
1520531832923235058,-0.0292632378,0.0370895700,-0.0262037542,0.3055594980,0.2146270183,9.6533416477
1520531832928250058,-0.0310199617,0.0359102310,-0.0213395533,0.2586593572,0.1906478625,9.6456865240
1520531832933266058,-0.0315193956,0.0367776318,-0.0188970376,0.2514439509,0.1486785097,9.6492841130
1520531832938282058,-0.0367937699,0.0379367317,-0.0172550687,0.2105566487,0.1211014644,9.6892218742
1520531832943298058,-0.0418191270,0.0396888972,-0.0193967629,0.2093540810,0.1342921027,9.7147878835
1520531832948312058,-0.0458377952,0.0417291989,-0.0201853714,0.1877078622,0.1175058226,9.7266363848
1520531832953329058,-0.0526140230,0.0472584761,-0.0185072559,0.2021386747,0.1091107158,9.7439362688
1520531832958345058,-0.0586415372,0.0522198481,-0.0222459046,0.2081515133,0.1402878985,9.7217666056
1520531832963359058,-0.0646716897,0.0557264828,-0.0268073064,0.1877078622,0.1918525289,9.7335367495
1520531832968376058,-0.0727130719,0.0574789237,-0.0294844917,0.2346080030,0.1822557528,9.6935767126
1520531832973393058,-0.0789983104,0.0569002492,-0.0319121829,0.2839132792,0.1606673851,9.7140364446
1520531832978409058,-0.0840306185,0.0536996061,-0.0343622154,0.2646721958,0.1714611475,9.7153753454
1520531832983424058,-0.0938390117,0.0496236673,-0.0370805954,0.2730901698,0.1450794025,9.7048598398
1520531832988439058,-0.1003785482,0.0440789740,-0.0349463320,0.2706850343,0.1330881856,9.7072192313
1520531832993455058,-0.1066666526,0.0391193335,-0.0336197269,0.2875209823,0.1067057851,9.7070810859
1520531832998471058,-0.1159722796,0.0324087475,-0.0317597678,0.2766978729,0.1174988918,9.6909058920
1520531833003487058,-0.1217569512,0.0277392316,-0.0298907813,0.2658747635,0.1294911390,9.6607838013
1520531833008503058,-0.1257858674,0.0233741727,-0.0326221190,0.2586593572,0.1031106116,9.6504204615
1520531833013517058,-0.1325728293,0.0213289090,-0.0315428955,0.2526465187,0.0815265523,9.6528243228
1520531833018534058,-0.1358448616,0.0175396302,-0.0315657282,0.2682798989,0.0671356496,9.6805776441
1520531833023550058,-0.1401206818,0.0146233827,-0.0313094788,0.2682798989,0.0779279134,9.7107828628
1520531833028566058,-0.1433889779,0.0122851991,-0.0291568289,0.2766978729,0.1091049088,9.7176433883
1520531833033580058,-0.1479140309,0.0102400931,-0.0278112600,0.2718876021,0.1091052835,9.7479059514
1520531833038597058,-0.1494146534,0.0151915825,-0.0272295754,0.2730901698,0.0983129260,9.7664990736
1520531833043612058,-0.1496604597,0.0166367517,-0.0228892590,0.2634696281,0.0899196923,9.8642209916
1520531833048628058,-0.1519150258,0.0204173086,-0.0204212453,0.3103697689,0.1174962693,9.8614133117
1520531833053643058,-0.1516621902,0.0204123081,-0.0185278907,0.3404339617,0.1258879108,9.8006810143
1520531833058660058,-0.1509069373,0.0186519129,-0.0139433492,0.3572699097,0.1222891783,9.8295742504
1520531833063675058,-0.1511577147,0.0166011963,-0.0099002556,0.3861315348,0.1246852113,9.7735080806
1520531833068692058,-0.1468811144,0.0157097773,-0.0028806659,0.4149931599,0.1174881209,9.7616127357
1520531833073707058,-0.1438651835,0.0133682276,0.0014246831,0.3885366702,0.1054987772,9.7932598271
1520531833078723058,-0.1385908602,0.0095750120,0.0040914408,0.3897392379,0.0851132963,9.8141865920
1520531833083739058,-0.1320587254,0.0057779181,0.0083791402,0.3897392379,0.0959055601,9.7874467570
1520531833088755058,-0.1237723798,-0.0006365768,0.0110202894,0.4186008630,0.1102929974,9.7267203179
1520531833093770058,-0.1177453087,-0.0070599705,0.0166416440,0.4402470819,0.0815119413,9.7300241229
1520531833098785058,-0.1087033063,-0.0120165189,0.0190219625,0.3945495088,0.0623292536,9.7455954959
1520531833103802058,-0.0989081523,-0.0163849039,0.0195115058,0.3753084254,0.0539367692,9.7516016820
1520531833108817058,-0.0901150770,-0.0210567222,0.0243294273,0.4234111339,0.0431407590,9.7232525488
1520531833113832058,-0.0808193098,-0.0233870693,0.0253765574,0.4053726182,0.0455404448,9.7327229376
1520531833118849058,-0.0675060585,-0.0271683931,0.0247818292,0.4306265402,0.0371444950,9.6987831422
1520531833123865058,-0.0546909669,-0.0297938454,0.0277140234,0.4775266810,0.0515305273,9.7076097645
1520531833128881058,-0.0438841057,-0.0292075712,0.0279689464,0.4811343841,0.0671190718,9.6796679930
1520531833133896058,-0.0305697528,-0.0315290586,0.0263031500,0.4787292487,0.0743141017,9.6773600992
1520531833138913058,-0.0202687001,-0.0329812162,0.0260023530,0.4450573527,0.0323468093,9.7021337907
1520531833143928058,-0.0084613913,-0.0344276840,0.0238049344,0.3753084254,0.0311531012,9.7353538840
1520531833148943058,0.0041072432,-0.0326788246,0.0254182121,0.4390445142,-0.0144191989,9.7034000642
1520531833153959058,0.0179307919,-0.0306315326,0.0245964663,0.4246137016,0.0035690314,9.7221172880
1520531833158975058,0.0307469930,-0.0288701914,0.0216099970,0.4065751859,-0.0084209679,9.7525203001
1520531833163989058,0.0410526208,-0.0271178476,0.0216041999,0.3981572119,-0.0743730356,9.7352343898
1520531833169007058,0.0518617243,-0.0253682206,0.0226796529,0.4318291079,-0.0707782368,9.7128224051
1520531833174023058,0.0616643114,-0.0250780953,0.0245574950,0.4546778944,-0.0779748589,9.7439849118
1520531833179038058,0.0727260311,-0.0233327404,0.0272557567,0.4426522173,-0.0779739223,9.7685069854
1520531833184054058,0.0820276044,-0.0218772739,0.0291434246,0.4462599204,-0.1175458372,9.7719968903
1520531833189069058,0.0893186498,-0.0224710279,0.0342658155,0.4655010038,-0.1247421783,9.7718166254
1520531833194086058,0.0988698440,-0.0245222754,0.0399139822,0.4558804621,-0.1415293950,9.7730887806
1520531833199100058,0.1041505458,-0.0239461799,0.0431551780,0.4787292487,-0.1475268766,9.7577643598
1520531833204116058,0.1096788534,-0.0251139226,0.0447592931,0.4594881653,-0.1175468675,9.7370038161
1520531833209132058,0.1147071156,-0.0242414421,0.0461093574,0.4101828891,-0.1211404487,9.7514329588
1520531833214148058,0.1169703027,-0.0224893351,0.0450363118,0.4077777536,-0.1115471380,9.7491227263
1520531833219164058,0.1212471814,-0.0178204099,0.0431701256,0.3777135608,-0.1175404986,9.7529076313
1520531833224180058,0.1215020948,-0.0125637350,0.0388809400,0.3572699097,-0.1331277319,9.7484732429
1520531833229195058,0.1215057134,-0.0058436801,0.0321684236,0.3416365294,-0.1427196377,9.7695533545
1520531833234212058,0.1200007863,-0.0014633049,0.0284169277,0.3043569303,-0.1211322066,9.8070837697
1520531833239228058,0.1167369006,0.0035013355,0.0238615073,0.3416365294,-0.0971523016,9.8322646931
1520531833244243058,0.1119636774,0.0055435271,0.0222626613,0.3632827482,-0.0863617237,9.8459892055
1520531833249258058,0.1079371841,0.0040974125,0.0176597332,0.3837263994,-0.0551856649,9.9050291584
1520531833254274058,0.1036608386,0.0017683047,0.0162971533,0.3692955868,-0.0587819623,9.9016866952
1520531833259290058,0.0968714577,-0.0017324248,0.0168241696,0.3560673420,-0.0455903873,9.9134240276
1520531833264305058,0.0898265127,-0.0075606868,0.0159811385,0.3548647743,0.0059727445,9.9482497697
1520531833269321058,0.0832893559,-0.0098935945,0.0157049427,0.3717007222,-0.0012234093,9.9202014601
1520531833274338058,0.0737404434,-0.0084353141,0.0138399723,0.3584724774,-0.0060189407,9.9156863172
1520531833279354058,0.0641918367,-0.0075634450,0.0133232853,0.3344211231,-0.0000213654,9.9089417080
1520531833284369058,0.0561544063,-0.0058241158,0.0155159261,0.3235980137,-0.0072153650,9.9032433497
1520531833289385058,0.0501298795,-0.0002872590,0.0144871825,0.3223954460,-0.0228040968,9.9079188320
1520531833294400058,0.0405810924,-0.0011709814,0.0166626159,0.3332185554,0.0251606772,9.9135774327
1520531833299416058,0.0310288750,-0.0040922101,0.0180108500,0.3777135608,0.0395468968,9.8817524268
1520531833304432058,0.0212298908,-0.0035161945,0.0191156820,0.3729032900,0.0587335183,9.8934019771
1520531833309447058,0.0111767066,-0.0041014450,0.0185888129,0.3260031491,0.0431483455,9.9101436911
1520531833314463058,0.0013716967,-0.0073105145,0.0185825612,0.3380288263,0.0155671792,9.9460799979
1520531833319480058,-0.0099382482,-0.0090661659,0.0196724088,0.3175851752,0.0467464224,9.9206814141
1520531833324496058,-0.0209968904,-0.0093582403,0.0183379921,0.2815081438,0.0383552492,9.9396350544
1520531833329511058,-0.0317954324,-0.0023619610,0.0157059563,0.3043569303,0.0443491718,9.9057046370
1520531833334526058,-0.0433530184,0.0008460242,0.0130464205,0.2863184146,0.0599394022,9.9209728828
1520531833339542058,-0.0559150077,0.0046363846,0.0103931978,0.2803055761,0.0995115045,9.9372628352
1520531833344558058,-0.0667143926,0.0084157793,0.0120654424,0.2430259770,0.1031118292,9.9143793049
1520531833349574058,-0.0782703556,0.0110329826,0.0123774654,0.2670773312,0.1007116752,9.9501740050
1520531833354590058,-0.0883275895,0.0066560912,0.0131744257,0.2706850343,0.0815251474,9.9513197432
1520531833359606058,-0.0973734731,0.0051861546,0.0166972090,0.3007492272,0.0887176484,9.9138314942
1520531833364620058,-0.1069187005,0.0054614145,0.0213164478,0.3067620657,0.1174965503,9.9125827609
1520531833369637058,-0.1154665615,0.0007871734,0.0245432977,0.2971415240,0.0995101932,9.9208289491
1520531833374653058,-0.1227570503,-0.0038894892,0.0288499977,0.2634696281,0.1163007816,9.9130053122
1520531833379668058,-0.1272820601,-0.0062274366,0.0307344353,0.2562542218,0.1306910287,9.9211965182
1520531833384685058,-0.1333127538,-0.0079875763,0.0342493948,0.2718876021,0.1198975473,9.8757312623
1520531833389700058,-0.1358299683,-0.0120723148,0.0358462142,0.2839132792,0.1162991894,9.8907255911
1520531833394715058,-0.1380935983,-0.0152864435,0.0388019656,0.3079646335,0.0947127886,9.8637832272
1520531833399730058,-0.1390951046,-0.0150063792,0.0428642440,0.2694824666,0.0803261006,9.8339560782
1520531833404747058,-0.1395962987,-0.0155966295,0.0455661903,0.2334054352,0.0695366466,9.8145613068
1520531833409763058,-0.1375809841,-0.0132705931,0.0477446083,0.2261900290,0.0371604172,9.7821230786
1520531833414778058,-0.1358186814,-0.0112316691,0.0482979947,0.2249874613,0.0707364427,9.7913991937
1520531833419795058,-0.1322989140,-0.0100647526,0.0483003529,0.2261900290,0.0419569788,9.7681726737
1520531833424811058,-0.1325482761,-0.0083150870,0.0477730663,0.2346080030,0.0371597615,9.7285825213
1520531833429826058,-0.1265183784,-0.0086011949,0.0466774583,0.2658747635,0.0179710796,9.7120268839
1520531833434841058,-0.1204867674,-0.0086002888,0.0472073487,0.2502413832,0.0095783142,9.7214843866
1520531833439857058,-0.1162184705,-0.0112203474,0.0469088608,0.2201771904,0.0167754983,9.7484993079
1520531833444874058,-0.1096909893,-0.0147093029,0.0449762277,0.1985309716,0.0023874991,9.7208325761
1520531833449889058,-0.1026608241,-0.0187837442,0.0441203985,0.2117592164,-0.0347868843,9.7439829491
1520531833454905058,-0.0963850417,-0.0240276612,0.0446098067,0.2322028675,-0.0563730042,9.7193999882
1520531833459920058,-0.0898575644,-0.0289800952,0.0451009713,0.2346080030,-0.0587714723,9.6752174465
1520531833464935058,-0.0823214575,-0.0304311504,0.0439936705,0.2237848935,-0.0587706294,9.6544042008
1520531833469951058,-0.0732805097,-0.0356768981,0.0455601283,0.2165694873,-0.0647657696,9.6788853009
1520531833474968058,-0.0632317242,-0.0380040361,0.0455236747,0.2346080030,-0.0539749106,9.6542941780
1520531833479983058,-0.0539331383,-0.0371240543,0.0447014375,0.2358105707,-0.0791569532,9.6124698467
1520531833485000058,-0.0421164165,-0.0324550892,0.0439034332,0.1841001590,-0.0887460492,9.6199553826
1520531833490015058,-0.0298024603,-0.0301097191,0.0403812518,0.2394182738,-0.1115340256,9.6089798718
1520531833495031058,-0.0179887298,-0.0274797172,0.0392971400,0.1828975913,-0.1055339215,9.6211456023
1520531833500046058,-0.0051672950,-0.0225160600,0.0374173083,0.1792898882,-0.1307155894,9.5747195154
1520531833505062058,0.0081521193,-0.0204638658,0.0347026746,0.1901129976,-0.1427078366,9.5595179919
1520531833510078058,0.0202156980,-0.0184143492,0.0328020122,0.1853027267,-0.1511014449,9.5909508843
1520531833515093058,0.0297661591,-0.0154872931,0.0292894109,0.1468205599,-0.1522975882,9.5959751912
1520531833520110058,0.0408232213,-0.0148972782,0.0281911377,0.1756821850,-0.1463041339,9.5968505672
1520531833525126058,0.0508768916,-0.0131428476,0.0273741696,0.2045438101,-0.1379123988,9.6035343241
1520531833530141058,0.0616880182,-0.0102291393,0.0289996067,0.2225823258,-0.1594983313,9.6022176525
1520531833535156058,0.0724965533,-0.0075995312,0.0279173618,0.2069489456,-0.1774842201,9.6058737901
1520531833540172058,0.0812944312,-0.0061406195,0.0284532337,0.2165694873,-0.1870780927,9.6185730879
1520531833545189058,0.0926055640,-0.0035108145,0.0273700553,0.1925181330,-0.1175260750,9.6268743750
1520531833550204058,0.1003940243,-0.0046725721,0.0270761487,0.2261900290,-0.1391132251,9.6381891211
1520531833555221058,0.1066769302,-0.0061350461,0.0300293700,0.2430259770,-0.1594999235,9.6531530005
1520531833560235058,0.1147182261,-0.0073018042,0.0316288179,0.2562542218,-0.1319207240,9.6483487742
1520531833565250058,0.1232542946,-0.0119547817,0.0294130128,0.2117592164,-0.1379129607,9.6580848597
1520531833570266058,0.1270215777,-0.0134094991,0.0291243506,0.2129617841,-0.1007397013,9.6371183139
1520531833575283058,0.1338058502,-0.0154530883,0.0315311006,0.2141643518,-0.1175277609,9.6557172829
1520531833580299058,0.1373222775,-0.0154458825,0.0293601993,0.1744796173,-0.1091306871,9.6979325467
1520531833585315058,0.1405880214,-0.0151481190,0.0274625337,0.1756821850,-0.0575677426,9.6885734084
1520531833590330058,0.1446095084,-0.0139780919,0.0263817749,0.1913155653,-0.0563698197,9.7197979601
1520531833595344058,0.1453660472,-0.0110595807,0.0247793302,0.1901129976,-0.0263912155,9.7035104163
1520531833600361058,0.1478815877,-0.0090181760,0.0245196786,0.2129617841,0.0083820773,9.7357941401
1520531833605377058,0.1498939974,-0.0093167856,0.0274897266,0.2622670604,0.0095773776,9.6934758811
1520531833610393058,0.1506505323,-0.0078617529,0.0283110796,0.2718876021,-0.0024147759,9.6968803659
1520531833615408058,0.1516588914,-0.0069937614,0.0307507950,0.2646721958,0.0011832073,9.7027578080
1520531833620425058,0.1519155062,-0.0058405082,0.0353585008,0.2706850343,-0.0024146822,9.7236213819
1520531833625440058,0.1499081030,-0.0052658111,0.0380721398,0.2670773312,0.0419537944,9.8014768765
1520531833630456058,0.1478980612,-0.0061458513,0.0399630256,0.2562542218,0.0167726885,9.7644181716
1520531833635472058,0.1453848063,-0.0073167446,0.0415820758,0.2718876021,0.0587413857,9.7793329504
1520531833640487058,0.1436258478,-0.0067324794,0.0407781514,0.2586593572,0.1091063137,9.8166012003
1520531833645503058,0.1416193737,-0.0035265804,0.0402652473,0.2514439509,0.0911197693,9.8143646828
1520531833650519058,0.1348309651,-0.0046889494,0.0381045893,0.2562542218,0.0995133777,9.8038503816
1520531833655534058,0.1300550642,-0.0023451752,0.0327203238,0.2273925967,0.1007147659,9.8517780358
1520531833660550058,0.1262885770,0.0011557898,0.0305896345,0.2502413832,0.1198992332,9.8573476500
1520531833665566058,0.1212640549,0.0031978829,0.0289912552,0.2935338209,0.1282898444,9.8081080366
1520531833670581058,0.1142289187,0.0037764384,0.0295498614,0.2971415240,0.1474758102,9.8080542120
1520531833675598058,0.1089494439,0.0023181766,0.0292780013,0.3055594980,0.1354837503,9.8335511369
1520531833680614058,0.1036683853,-0.0003056233,0.0289972488,0.2887235500,0.1186970956,9.8383799543
1520531833685629058,0.0981389721,-0.0020611955,0.0308879995,0.3187877429,0.1174956137,9.8578449445
1520531833690645058,0.0905972786,-0.0043966822,0.0314253083,0.3223954460,0.1282875965,9.8531507294
1520531833695660058,0.0838123827,-0.0055707061,0.0335933847,0.2754953052,0.1342869514,9.8477906601
1520531833700677058,0.0767720990,-0.0087801495,0.0341230908,0.2634696281,0.1127033604,9.8432801830
1520531833705692058,0.0712441834,-0.0087845008,0.0349449964,0.3320159877,0.1246894260,9.8716549003
1520531833710708058,0.0606874724,-0.0120011501,0.0376456038,0.3211928783,0.1294868306,9.9008091673
1520531833715723058,0.0531524672,-0.0090902585,0.0376818363,0.3163826074,0.0851190096,9.9322771398
1520531833720740058,0.0471266662,-0.0038418724,0.0355686860,0.3296108523,0.0779231368,9.9449389837
1520531833725755058,0.0388394777,-0.0006442623,0.0372318172,0.3356236908,0.0839183706,9.9193074447
1520531833730771058,0.0323129217,0.0040124166,0.0383617050,0.3067620657,0.0851197589,9.9532893714
1520531833735787058,0.0240249021,0.0083835776,0.0370577237,0.3163826074,0.0719284649,9.9322900025
1520531833740802058,0.0162409306,0.0133355193,0.0365688927,0.3223954460,0.0767245583,9.9322267999
1520531833745818058,0.0089597333,0.0185797709,0.0358108056,0.3404339617,0.0455455024,9.8960551643
1520531833750834058,0.0021835094,0.0255725266,0.0350651234,0.2935338209,0.0599388402,9.8697683185
1520531833755849058,-0.0061024442,0.0308149275,0.0348499949,0.2803055761,0.0791261173,9.8466354856
1520531833760867058,-0.0156474402,0.0354798945,0.0324683867,0.3031543626,0.1019080058,9.8707958951
1520531833765881058,-0.0224251578,0.0421849077,0.0303677521,0.3055594980,0.1067043802,9.9160914218
1520531833770897058,-0.0284475754,0.0483001630,0.0309667300,0.2694824666,0.1043089091,9.9071477606
1520531833775913058,-0.0319639047,0.0520977100,0.0269439758,0.2694824666,0.1139020325,9.8920305345
1520531833780929058,-0.0382422354,0.0567646853,0.0242857543,0.2959389563,0.1103025507,9.9057222587
1520531833785944058,-0.0457782521,0.0590935363,0.0240469948,0.2526465187,0.1139033437,9.9224101481
1520531833790960058,-0.0510530577,0.0631810501,0.0203002766,0.2670773312,0.1510755729,9.9466384609
1520531833795975058,-0.0533131593,0.0658091807,0.0178895718,0.2923312532,0.1318873593,9.9382763565
1520531833800991058,-0.0588366723,0.0701806963,0.0168510024,0.2754953052,0.1462783556,9.9209940359
1520531833806008058,-0.0605911419,0.0745551456,0.0152643404,0.2322028675,0.1666671146,9.9062876677
1520531833811023058,-0.0638584619,0.0760188010,0.0123055184,0.2682798989,0.1834522707,9.8652451069
1520531833816038058,-0.0693821513,0.0800982037,0.0115352718,0.2935338209,0.1798528826,9.8278142022
1520531833821055058,-0.0711375461,0.0833049296,0.0107513551,0.2754953052,0.1618671811,9.8256830302
1520531833826070058,-0.0744035057,0.0844713731,0.0099546772,0.2766978729,0.1498756832,9.8187101548
1520531833831087058,-0.0756614935,0.0841831384,0.0086020582,0.2526465187,0.1606698202,9.8328794594
1520531833836102058,-0.0736517223,0.0824297915,0.0107493531,0.2598619249,0.1474787136,9.8363085236
1520531833841118058,-0.0756598273,0.0832995152,0.0121124856,0.2201771904,0.0803299407,9.8367602735
1520531833846132058,-0.0766612395,0.0859208537,0.0124049062,0.2237848935,0.1103081703,9.8448309325
1520531833851149058,-0.0756538448,0.0873774418,0.0126847006,0.2189746227,0.1222999492,9.8007045891
1520531833856165058,-0.0738982343,0.0827065089,0.0161629608,0.2201771904,0.1079101704,9.8134904996
1520531833861181058,-0.0716380895,0.0797855370,0.0191125343,0.2069489456,0.1306948687,9.8008134543
1520531833866195058,-0.0706388846,0.0727810473,0.0233860477,0.2370131384,0.1306925272,9.7621700774
1520531833871212058,-0.0678849827,0.0643283368,0.0246691737,0.2610644926,0.0959155818,9.7364027201
1520531833876228058,-0.0658807589,0.0570321280,0.0292091431,0.2382157061,0.0983156421,9.7366227775
1520531833881244058,-0.0598592312,0.0465293509,0.0347993744,0.2069489456,0.1019154986,9.7311128811
1520531833886259058,-0.0535886433,0.0363267979,0.0371448114,0.2105566487,0.0839281112,9.7496896093
1520531833891275058,-0.0473194628,0.0252508198,0.0392130333,0.2153669196,0.0779320345,9.7508107798
1520531833896290058,-0.0397928159,0.0165136945,0.0385912472,0.2334054352,0.1079091402,9.7633895539
1520531833901307058,-0.0299990301,0.0095155645,0.0417662417,0.1973284039,0.0935222649,9.7370254267
1520531833906322058,-0.0227156295,0.0071909856,0.0403821926,0.1516308308,0.0659455942,9.7119299467
1520531833911338058,-0.0141728767,0.0063209080,0.0400891088,0.1095409608,0.0911308212,9.6774507489
1520531833916352058,-0.0041218880,0.0069134427,0.0379105189,0.1131486640,0.0611520297,9.6995256024
1520531833921369058,0.0059250589,0.0066412934,0.0322081631,0.1359974505,0.0731416544,9.6946429371
1520531833926385058,0.0157225063,0.0060703769,0.0292095099,0.1275794765,0.0719431695,9.7470225198
1520531833931402058,0.0252635976,0.0025891588,0.0248363630,0.1576436693,0.0779365302,9.7513726225
1520531833936417058,0.0335539969,0.0014297834,0.0237298852,0.1552385339,0.0719410154,9.7118889848
1520531833941433058,0.0423425992,-0.0011783049,0.0196353537,0.1263769088,0.0635492802,9.6773137729
1520531833946448058,0.0511279906,-0.0058246281,0.0149841688,0.1191615025,0.0395670337,9.6808938219
1520531833951463058,0.0584074355,-0.0095995737,0.0111540912,0.1311871796,0.0287738333,9.7005437426
1520531833956481058,0.0654429716,-0.0084232661,0.0081739104,0.1359974505,0.0167820545,9.6598335774
1520531833961496058,0.0719735774,-0.0092883039,0.0057201933,0.1167563671,-0.0083983959,9.6937475891
1520531833966510058,0.0772472539,-0.0086888987,0.0003039203,0.0951101483,-0.0227863951,9.7137287594
1520531833971528058,0.0810115066,-0.0104262594,-0.0032335157,0.0951101483,-0.0359769397,9.7114173342
1520531833976543058,0.0847740851,-0.0142069540,-0.0054337838,0.1359974505,-0.0371792646,9.7482091382
1520531833981559058,0.0867812689,-0.0147809227,-0.0084179686,0.1588462370,0.0131828536,9.7456133420
1520531833986575058,0.0890381206,-0.0176909681,-0.0095265836,0.1744796173,0.0023893723,9.7570931398
1520531833991590058,0.0875239060,-0.0217680285,-0.0106370900,0.1877078622,0.0191763079,9.8138930672
1520531833996605058,0.0867635369,-0.0284789092,-0.0074402700,0.1708719142,0.0239741809,9.7966201013
1520531834001622058,0.0865021194,-0.0357628924,-0.0077659263,0.1600488048,0.0263733046,9.8095066917
1520531834006638058,0.0862494524,-0.0383927359,-0.0050800084,0.1107435285,0.0035934767,9.8169816801
1520531834011653058,0.0827288891,-0.0416059000,-0.0026630152,0.1179589348,-0.0036019278,9.7681084198
1520531834016668058,0.0802173513,-0.0410263008,-0.0018422641,0.1095409608,-0.0179909573,9.8170144333
1520531834021685058,0.0772019418,-0.0407353693,-0.0021049862,0.1023255545,-0.0167912549,9.8077863427
1520531834026700058,0.0739327714,-0.0416071606,-0.0034583175,0.0902998774,0.0143873327,9.8148458541
1520531834031716058,0.0694125210,-0.0375215367,-0.0063947982,0.1047306900,0.0215810513,9.8077255137
1520531834036732058,0.0653931040,-0.0363568454,-0.0066489842,0.0758690649,0.0251807204,9.8324079501
1520531834041748058,0.0608699956,-0.0337252304,-0.0106787638,0.1119460962,0.0635504042,9.8401543872
1520531834046762058,0.0538350359,-0.0328545620,-0.0103884804,0.1612513725,0.0887285130,9.8535956512
1520531834051779058,0.0495624735,-0.0325619375,-0.0114605066,0.1323897474,0.0719427949,9.8027586093
1520531834056795058,0.0435247036,-0.0369328831,-0.0122942892,0.1071358254,0.0863344468,9.8494761416
1520531834061811058,0.0397528023,-0.0383898257,-0.0128394956,0.1107435285,0.0503599532,9.8785297055
1520531834066825058,0.0332203539,-0.0369332776,-0.0136278831,0.1011229868,0.0695469492,9.8669831970
1520531834071843058,0.0294532512,-0.0337229687,-0.0160313413,0.1155537994,0.1079183189,9.8714538932
1520531834076858058,0.0246811687,-0.0319772607,-0.0157385892,0.1251743411,0.1115149908,9.8945996239
1520531834081874058,0.0183987882,-0.0311019263,-0.0170729813,0.1384025859,0.1259036457,9.9060782757
1520531834086889058,0.0146348492,-0.0270240198,-0.0170348573,0.1155537994,0.1474899528,9.8714153051
1520531834091905058,0.0103603502,-0.0284811593,-0.0175791302,0.1323897474,0.1115144289,9.8433950595
1520531834096920058,0.0060923160,-0.0261546705,-0.0164712276,0.1636565079,0.1414905043,9.8907093967
1520531834101937058,0.0025765081,-0.0244077418,-0.0164513550,0.1191615025,0.1618793569,9.8434747029
1520531834106953058,0.0003138543,-0.0238200313,-0.0186070755,0.0963127160,0.1558854343,9.8239464985
1520531834111969058,-0.0042136999,-0.0252714419,-0.0213152489,0.1119460962,0.1882610082,9.8098170331
1520531834116983058,-0.0054718171,-0.0246811524,-0.0242844739,0.0999204191,0.2074481916,9.7913210710
1520531834122000058,-0.0062283912,-0.0243798652,-0.0280684932,0.0902998774,0.2122455025,9.8100043373
1520531834127016058,-0.0082380722,-0.0217487225,-0.0315618483,0.1372000182,0.2122418498,9.8083856962
1520531834132032058,-0.0079831235,-0.0197118460,-0.0304645698,0.1552385339,0.1762662322,9.8303259357
1520531834137047058,-0.0069766932,-0.0176666615,-0.0323446964,0.1540359662,0.1546817982,9.8396558404
1520531834142063058,-0.0059700003,-0.0159150468,-0.0334154084,0.1708719142,0.1750658742,9.7813648932
1520531834147078058,-0.0062173826,-0.0127084586,-0.0339315795,0.1804924559,0.1798616866,9.7684829919
1520531834152094058,-0.0084754182,-0.0092090882,-0.0352534315,0.1744796173,0.1582776273,9.7546168378
1520531834157110058,-0.0052045778,-0.0077574415,-0.0328134704,0.1720744819,0.1630743763,9.7255819717
1520531834162126058,-0.0042000411,-0.0077548624,-0.0336269749,0.1420102891,0.1402930498,9.7305453914
1520531834167141058,-0.0024376483,-0.0048381427,-0.0344196488,0.1408077214,0.1354965817,9.7108053266
1520531834172157058,-0.0029403793,-0.0054232939,-0.0336115239,0.1528333985,0.1067162750,9.7234999237
1520531834177173058,-0.0011815893,-0.0033727150,-0.0373868719,0.1372000182,0.0899295266,9.7097227327
1520531834182188058,0.0023368570,-0.0036649064,-0.0365839914,0.1600488048,0.1211053981,9.7094699338
1520531834187205058,0.0030859627,-0.0054049055,-0.0395747350,0.1420102891,0.1199076626,9.7270788383
1520531834192221058,0.0040894448,-0.0056915256,-0.0412021003,0.1287820442,0.1271035354,9.7167412823
1520531834197235058,0.0068514464,-0.0065609540,-0.0425666330,0.1251743411,0.1247055355,9.6993465768
1520531834202253058,0.0078587117,-0.0042258418,-0.0439034447,0.1227692057,0.1307014249,9.6889048447
1520531834207268058,0.0093640897,-0.0042172384,-0.0468822499,0.1071358254,0.1247069404,9.6925492889
1520531834212283058,0.0121256090,-0.0047923685,-0.0493267431,0.1287820442,0.1055190077,9.6714387162
1520531834217297058,0.0128831514,-0.0042187737,-0.0458066004,0.1756821850,0.1462861294,9.6802396131
1520531834222313058,0.0136384122,-0.0030522118,-0.0460696541,0.1372000182,0.1187088968,9.7131811004
1520531834227330058,0.0181675542,0.0010282154,-0.0457763861,0.1480231276,0.1043183688,9.7305219463
1520531834232346058,0.0237018914,0.0051090363,-0.0454849849,0.1768847527,0.0995195592,9.7267592704
1520531834237362058,0.0227097589,0.0132608534,-0.0429859586,0.1816950236,0.0959217633,9.7522831252
1520531834242378058,0.0249800694,0.0187944034,-0.0415951910,0.1744796173,0.1235025550,9.7232728619
1520531834247393058,0.0264960403,0.0228656363,-0.0383203174,0.1961258361,0.1031154819,9.7660813759
1520531834252409058,0.0262467213,0.0243224605,-0.0383087352,0.2033412424,0.1103097625,9.7857605768
1520531834257426058,0.0280095100,0.0275305648,-0.0390991860,0.2201771904,0.1354904002,9.7855721499
1520531834262441058,0.0247460164,0.0313231111,-0.0412285857,0.1889104299,0.1606747842,9.7660954780
1520531834267455058,0.0260044904,0.0327805261,-0.0412198039,0.1684667787,0.1654729381,9.7837219459
1520531834272473058,0.0270102660,0.0362913744,-0.0463353658,0.1744796173,0.1474853635,9.7976266882
1520531834277489058,0.0252540361,0.0392081726,-0.0476625973,0.2117592164,0.1714652685,9.7925918688
1520531834282503058,0.0255093847,0.0429999121,-0.0489868934,0.2189746227,0.1594733023,9.7843983242
1520531834287519058,0.0230021123,0.0459069454,-0.0467956282,0.2237848935,0.1510789447,9.8203861519
1520531834292535058,0.0207423596,0.0476558233,-0.0473191809,0.1985309716,0.1870551243,9.8089754384
1520531834297550058,0.0207417911,0.0485358043,-0.0494768788,0.1973284039,0.1834577966,9.8055042196
1520531834302566058,0.0182283598,0.0470727981,-0.0475895058,0.2225823258,0.1534773192,9.8378276776
1520531834307583058,0.0157154538,0.0450226523,-0.0440833035,0.2586593572,0.1534745094,9.8351522380
1520531834312598058,0.0126961239,0.0406434186,-0.0414055901,0.2297977321,0.1318922296,9.8610213745
1520531834317613058,0.0096752101,0.0350986468,-0.0387367691,0.2490388155,0.1474795566,9.8329274373
1520531834322631058,0.0079149696,0.0324674841,-0.0357775050,0.2117592164,0.1390884771,9.7879748652
1520531834327646058,0.0066585577,0.0304178305,-0.0322736363,0.1877078622,0.1462851928,9.7858776623
1520531834332661058,0.0041467103,0.0301203624,-0.0303773709,0.1600488048,0.1259019598,9.7559510146
1520531834337677058,0.0016386421,0.0309811481,-0.0257667542,0.1756821850,0.1259007422,9.7465016972
1520531834342692058,-0.0003665658,0.0315485609,-0.0203476563,0.1672642110,0.1366936616,9.7767888514
1520531834347708058,-0.0023762547,0.0312527466,-0.0189934161,0.1648590756,0.1306981468,9.7512509412
1520531834352724058,-0.0038847102,0.0297908626,-0.0173784558,0.1444154245,0.1534834071,9.7432927020
1520531834357740058,-0.0051446386,0.0262893854,-0.0157795238,0.1191615025,0.1594810761,9.7365597978
1520531834362756058,-0.0084124447,0.0265838606,-0.0173945087,0.1744796173,0.1474853635,9.7406816344
1520531834367771058,-0.0084097161,0.0289163937,-0.0179178158,0.1708719142,0.1630744700,9.7011886537
1520531834372788058,-0.0081588563,0.0289179490,-0.0184593744,0.1263769088,0.1702727779,9.6481561029
1520531834377803058,-0.0084127936,0.0274631132,-0.0192816607,0.1432128568,0.1522843603,9.6793876590
1520531834382819058,-0.0074105425,0.0265951809,-0.0214545641,0.1372000182,0.1390942840,9.6248382811
1520531834387835058,-0.0069123396,0.0251464679,-0.0244426178,0.1588462370,0.1223046322,9.6292925367
1520531834392851058,-0.0061600662,0.0257375451,-0.0274155766,0.1853027267,0.1223025717,9.5871978431
1520531834397866058,-0.0054045858,0.0269033786,-0.0274080845,0.1672642110,0.1235031170,9.5827236738
1520531834402883058,-0.0041469901,0.0283637072,-0.0284814862,0.1420102891,0.1019205562,9.5609097929
1520531834407898058,0.0011330571,0.0304054665,-0.0284757258,0.1828975913,0.1127096356,9.4989076674
1520531834412913058,0.0036515026,0.0350715172,-0.0295270073,0.1816950236,0.1139088697,9.4884589075
1520531834417929058,0.0071718856,0.0365290898,-0.0292518801,0.2117592164,0.1294953537,9.4811782160
1520531834422945058,0.0111959208,0.0382760585,-0.0281638256,0.2045438101,0.1330933369,9.4672992108
1520531834427960058,0.0147126068,0.0365262160,-0.0271015146,0.1720744819,0.1235027423,9.4501924428
1520531834432975058,0.0199917248,0.0359367733,-0.0238692112,0.2273925967,0.1330915574,9.4147803368
1520531834437992058,0.0237641945,0.0365137349,-0.0211663070,0.2177720550,0.1282957450,9.4439322535
1520531834443008058,0.0280364040,0.0356368845,-0.0195576351,0.2081515133,0.1642707069,9.4486393896
1520531834448023058,0.0323123496,0.0362111292,-0.0157734807,0.2261900290,0.1630701616,9.4786807259
1520531834453039058,0.0350760173,0.0344580776,-0.0136275860,0.2370131384,0.1774590038,9.4564806132
1520531834458055058,0.0385926641,0.0344645550,-0.0155279414,0.2285951644,0.1810570806,9.4774776317
1520531834463071058,0.0458805497,0.0344666818,-0.0152709305,0.2153669196,0.1139062472,9.4834825901
1520531834468087058,0.0493966672,0.0335968203,-0.0163663175,0.2827107115,0.0935156150,9.5049277209
1520531834473102058,0.0524134019,0.0362284753,-0.0193279152,0.2863184146,0.1174981425,9.5513549771
1520531834478118058,0.0579373618,0.0347824599,-0.0225958493,0.3103697689,0.1091022864,9.5453183415
1520531834483135058,0.0642158769,0.0333345545,-0.0250535459,0.3223954460,0.0995082264,9.4964005996
1520531834488149058,0.0667275949,0.0345105468,-0.0285664174,0.3416365294,0.0995067278,9.5229426297
1520531834493166058,0.0730084426,0.0351037899,-0.0315496442,0.3500545034,0.0815189658,9.5472832574
1520531834498180058,0.0752698734,0.0368617244,-0.0347870569,0.3668904514,0.1019030418,9.5622073792
1520531834503197058,0.0762744101,0.0368643035,-0.0356005615,0.3729032900,0.1222879607,9.5342375203
1520531834508213058,0.0802976612,0.0409554602,-0.0393645484,0.4149931599,0.1186872613,9.5663713820
1520531834513228058,0.0833185750,0.0465002320,-0.0420333694,0.4450573527,0.0839098476,9.5928419774
1520531834518244058,0.0860896366,0.0511620106,-0.0414618422,0.4222085662,0.0935047505,9.6290814814
1520531834523260058,0.0873524191,0.0546540182,-0.0395436776,0.4823369518,0.0527292931,9.6703731684
1520531834528276058,0.0888645167,0.0552257231,-0.0352132974,0.5605038532,-0.0012381139,9.6975564149
1520531834533292058,0.0888720281,0.0563715935,-0.0278996659,0.6242399420,-0.0240267459,9.7120661358
1520531834538307058,0.0918978150,0.0616074985,-0.0240776085,0.6350630514,-0.0647983632,9.7398920027
1520531834543323058,0.0911499363,0.0624653312,-0.0181175293,0.6591144056,-0.0971770279,9.7884995198
1520531834548338058,0.0921625137,0.0644901196,-0.0124223708,0.7204453590,-0.1415500002,9.8053779868
1520531834553354058,0.0919188597,0.0662208460,-0.0059154641,0.7432941455,-0.1367552180,9.8214209287
1520531834558371058,0.0931800975,0.0667909956,-0.0010435254,0.7288633330,-0.1523429196,9.8692244930
1520531834563385058,0.0916717322,0.0662069074,-0.0007746253,0.7444967133,-0.1487467159,9.9260138730
1520531834568402058,0.0901647272,0.0653256072,0.0016564188,0.7577249581,-0.1307606398,9.9212190014
1520531834573418058,0.0939429600,0.0699812237,0.0046609922,0.7685480675,-0.1175709381,9.9199386492
1520531834578433058,0.0957064073,0.0731871427,0.0046821791,0.7805737446,-0.1055804705,9.9035398899
1520531834583450058,0.0982323683,0.0804625424,0.0085207315,0.7901942863,-0.1007846581,9.8964687084
1520531834588464058,0.1007526524,0.0830736044,0.0131353523,0.7192427913,-0.0887877279,9.9517683792
1520531834593481058,0.1030208066,0.0868581187,0.0147833272,0.7384838747,-0.0672046988,9.9027500041
1520531834598495058,0.1052818806,0.0865683487,0.0145063577,0.7456992810,-0.0360276098,9.9119465226
1520531834603512058,0.1065403114,0.0883186050,0.0139762708,0.7865865832,-0.0216411091,9.9719660042
1520531834608528058,0.1057877714,0.0865576192,0.0185636127,0.8178533437,-0.0216435443,9.9774723925
1520531834613543058,0.1093033087,0.0821773032,0.0225819208,0.7913968541,0.0011421843,10.0148962928
1520531834618559058,0.1113095594,0.0775086541,0.0252480766,0.7950045572,0.0011419033,10.0090504579
1520531834623575058,0.1095441282,0.0713823339,0.0276395719,0.8407021303,-0.0132513409,10.0376732967
1520531834628591058,0.1090332506,0.0620432635,0.0329802845,0.8623483491,-0.0492272395,10.0270383902
1520531834633606058,0.1050071415,0.0564980979,0.0356509725,0.8250687500,-0.0492243360,9.9867262086
1520531834638621058,0.1017319807,0.0486214230,0.0385730214,0.8635509168,-0.0408333502,10.0165592042
1520531834643637058,0.0977014298,0.0404567104,0.0401415180,0.9044382191,-0.0756116069,10.0894102123
1520531834648652058,0.0931686732,0.0311197068,0.0441369687,0.8791842971,-0.1103847123,10.0652849062
1520531834653670058,0.0871295781,0.0238261748,0.0465275060,0.8803868648,-0.1043891038,10.0641052105
1520531834658685058,0.0788275155,0.0147798074,0.0502616348,0.9284895733,-0.0876048843,10.0427020464
1520531834663700058,0.0717830448,0.0057302901,0.0553461594,0.9308947088,-0.0732153865,10.0298810207
1520531834668716058,0.0659955975,-0.0024423960,0.0596233820,0.9248818702,-0.0828080416,10.0380839083
1520531834673733058,0.0594569391,-0.0079900030,0.0628398289,0.9320972765,-0.0648214972,10.0507797214
1520531834678747058,0.0521647803,-0.0132465209,0.0660598991,0.9284895733,-0.0660203567,10.0380324224
1520531834683764058,0.0478895286,-0.0170427494,0.0684738463,0.9417178182,-0.0660213869,9.9809586131
1520531834688780058,0.0436125597,-0.0225894703,0.0716860928,0.9188690316,-0.0468333606,9.9590815646
1520531834693795058,0.0380820017,-0.0255120375,0.0741090429,0.9308947088,0.0299106899,9.9658625400
1520531834698810058,0.0343107551,-0.0284346439,0.0767992718,0.9008305159,0.0275147505,9.9684817930
1520531834703827058,0.0325484916,-0.0322298878,0.0792085519,0.9068433545,0.0586919332,9.9695550089
1520531834708842058,0.0305333455,-0.0371907683,0.0816094063,0.9561486307,0.0838700421,9.9957798564
1520531834713858058,0.0297750895,-0.0418597720,0.0840101501,0.9838076881,0.1318335048,10.0210310335
1520531834718874058,0.0302738961,-0.0474082645,0.0885662583,0.9044382191,0.2049872522,10.0275429573
1520531834723891058,0.0305176246,-0.0541151091,0.0904084819,0.9417178182,0.2781319146,10.0677838093
1520531834728906058,0.0335279298,-0.0584868809,0.0911811726,0.9224767348,0.3392895747,10.1097486362
1520531834733922058,0.0365407871,-0.0608182325,0.0916988790,0.9140587608,0.4052429536,10.1237119854
1520531834738937058,0.0390525013,-0.0611057187,0.0906098051,0.9200715993,0.4352209959,10.1352456662
1520531834743953058,0.0420674717,-0.0613951934,0.0903314355,0.8960202451,0.4711970818,10.1191746718
1520531834748968058,0.0478531078,-0.0573142739,0.0906223699,0.8936151097,0.5119680435,10.1435633474
1520531834753985058,0.0541381778,-0.0541007553,0.0884707886,0.8912099742,0.5491415840,10.2225762969
1520531834759001058,0.0579121491,-0.0503090943,0.0876810502,0.8394995626,0.5371542071,10.2161184440
1520531834764015058,0.0624376882,-0.0470948080,0.0849916441,0.8370944272,0.5467475178,10.2021867719
1520531834769032058,0.0642036486,-0.0400921490,0.0817951804,0.7974096926,0.4951875704,10.1782182973
1520531834774047058,0.0669767880,-0.0301686950,0.0761841675,0.7577249581,0.4604155889,10.1995570662
1520531834779063058,0.0677392702,-0.0214159374,0.0721912715,0.7565223904,0.4076535039,10.2100795178
1520531834784080058,0.0680011385,-0.0097429755,0.0657866267,0.7132299527,0.3369075907,10.1873270117
1520531834789095058,0.0685113183,0.0013546001,0.0566716100,0.7096222496,0.2829465526,10.1316318374
1520531834794111058,0.0660067001,0.0115702848,0.0499904378,0.7192427913,0.2601621353,10.0757775046
1520531834799126058,0.0640068319,0.0220717235,0.0454749224,0.7324710361,0.2157929094,10.0675570068
1520531834804142058,0.0587354176,0.0299530636,0.0395927372,0.7877891509,0.1930049330,10.0751757993
1520531834809157058,0.0529623229,0.0360749733,0.0377563354,0.7805737446,0.1630269844,10.1066531499
1520531834814173058,0.0486917404,0.0378245204,0.0366954246,0.7541172550,0.1270548322,10.0871892941
1520531834819190058,0.0424083915,0.0378249727,0.0356249091,0.7541172550,0.1150634279,10.1034710029
1520531834824205058,0.0366294868,0.0386975903,0.0353717671,0.7733583384,0.0838842784,10.0998276929
1520531834829221058,0.0295929471,0.0398661991,0.0332293605,0.7372813070,0.0922810711,10.1210892504
1520531834834237058,0.0218012759,0.0389897218,0.0329666138,0.7252556298,0.1198622375,10.1792866039
1520531834839255058,0.0155181035,0.0392822871,0.0316277755,0.7529146872,0.1246566450,10.1906341498
1520531834844268058,0.0059678227,0.0381108224,0.0324482563,0.7769660415,0.1402435973,10.2171141582
1520531834849283058,-0.0010706145,0.0357733472,0.0337962694,0.7553198227,0.1294530194,10.2487132600
1520531834854300058,-0.0068498328,0.0343054190,0.0370424393,0.7986122603,0.1378436306,10.2645537080
1520531834859315058,-0.0143923222,0.0299236846,0.0399990996,0.8310815886,0.0970703274,10.2793853004
1520531834864331058,-0.0194189652,0.0269969438,0.0440443916,0.8503226720,0.1150559352,10.3140447980
1520531834869347058,-0.0236894694,0.0252338511,0.0489088135,0.8394995626,0.1222516206,10.3385481505
1520531834874364058,-0.0259451410,0.0260910931,0.0548716930,0.8599432137,0.1054620625,10.3197712321
1520531834879379058,-0.0292124727,0.0231643130,0.0591842639,0.8599432137,0.0910723774,10.3348931355
1520531834884395058,-0.0334819223,0.0216904196,0.0648625466,0.8539303751,0.0634926160,10.3768157380
1520531834889411058,-0.0329748436,0.0225538436,0.0689264708,0.8407021303,0.0527013824,10.2944427969
1520531834894426058,-0.0332264482,0.0231401564,0.0675786542,0.7974096926,0.0407133499,10.2786058570
1520531834899441058,-0.0344811350,0.0257679523,0.0654366285,0.8010173958,0.0431113498,10.2541633801
1520531834904457058,-0.0337251646,0.0295664446,0.0616764859,0.7901942863,0.0479087544,10.2066161461
1520531834909474058,-0.0317136174,0.0351246627,0.0538691597,0.8082328020,0.0443099283,10.1750661915
1520531834914488058,-0.0291973163,0.0424321134,0.0458036927,0.7998148280,0.0359166009,10.1891020397
1520531834919505058,-0.0276890254,0.0479923199,0.0371856624,0.8118405052,0.0059371537,10.1994735182
1520531834924520058,-0.0276875160,0.0541339764,0.0288454244,0.8611457814,-0.0288417586,10.2001896657
1520531834929536058,-0.0284311998,0.0637588400,0.0254030897,0.8791842971,-0.0588216741,10.1988811794
1520531834934551058,-0.0289299162,0.0701851282,0.0195009213,0.9128561931,-0.0504303136,10.1520594943
1520531834939569058,-0.0294317572,0.0739874987,0.0141198370,0.9224767348,-0.0732147309,10.1810416701
1520531834944583058,-0.0306857384,0.0777837465,0.0109045199,0.9573511984,-0.0804122896,10.2144114142
1520531834949599058,-0.0319442986,0.0769120144,0.0098180007,0.9513383599,-0.0864075234,10.2040164906
1520531834954615058,-0.0352194084,0.0716694551,0.0084313231,1.0018462038,-0.1055977039,10.2058678755
1520531834959631058,-0.0389948302,0.0672972104,0.0084049777,1.0042513393,-0.1307798401,10.2732733709
1520531834964646058,-0.0412679085,0.0611874472,0.0045748508,0.9958333653,-0.1295800441,10.3221641830
1520531834969662058,-0.0463034313,0.0544850908,0.0039919626,0.9573511984,-0.1607546980,10.3376770191
1520531834974678058,-0.0551066292,0.0504095458,0.0012717157,0.9814025527,-0.1871376605,10.3119014764
1520531834979693058,-0.0598901435,0.0463392183,-0.0028087282,1.0667848603,-0.1871443103,10.2959625460
1520531834984709058,-0.0659255808,0.0440094213,-0.0041680410,1.1317235168,-0.2099330360,10.3151091376
1520531834989725058,-0.0729662135,0.0416792304,-0.0055254869,1.1184952720,-0.2207242696,10.2815462426
1520531834994740058,-0.0797563392,0.0387663690,-0.0068878457,1.1425466262,-0.2255227045,10.2952625463
1520531834999755058,-0.0852918643,0.0338113945,-0.0071859161,1.1545723034,-0.2471081687,10.3532737415
1520531835004773058,-0.0908329760,0.0250698779,-0.0080539785,1.2050801473,-0.2135361706,10.3190472130
1520531835009789058,-0.0978852248,0.0137045815,-0.0086687023,1.2555879913,-0.2171375255,10.3232076845
1520531835014803058,-0.1029254090,0.0043834065,-0.0106243279,1.2880573195,-0.2339280203,10.3345294582
1520531835019820058,-0.1114816676,-0.0043607484,-0.0109456977,1.2495751527,-0.2615052529,10.2919315885
1520531835024835058,-0.1177740805,-0.0113549816,-0.0115284755,1.2700188038,-0.2782948111,10.2801275338
1520531835029851058,-0.1230651165,-0.0177507548,-0.0177901378,1.3121086738,-0.2627092636,10.2843512312
1520531835034866058,-0.1245831535,-0.0226932276,-0.0221538642,1.2988804289,-0.2818944802,10.2577693853
1520531835039883058,-0.1283608962,-0.0247161854,-0.0289260724,1.2904624549,-0.2782964033,10.2473885171
1520531835044899058,-0.1326383786,-0.0252853311,-0.0346040481,1.3085009706,-0.2830943699,10.2669740658
1520531835049914058,-0.1346568100,-0.0273083281,-0.0411089774,1.3072984029,-0.2675054507,10.2495384102
1520531835054930058,-0.1386883057,-0.0275670516,-0.0538193900,1.3349574603,-0.2291351113,10.2887446695
1520531835059946058,-0.1424602384,-0.0243407173,-0.0621748580,1.3794524657,-0.2447274023,10.2453274575
1520531835064960058,-0.1474862032,-0.0199522509,-0.0694369164,1.3914781428,-0.2387326367,10.2463667042
1520531835069977058,-0.1505042354,-0.0152621427,-0.0802175822,1.3806550334,-0.2447274959,10.2336943129
1520531835074992058,-0.1500022767,-0.0079423679,-0.0931491415,1.3926807105,-0.2447284325,10.2393879821
1520531835080008058,-0.1550263479,-0.0015112960,-0.1014778220,1.4395808513,-0.2375372427,10.3098152501
1520531835085025058,-0.1587949756,0.0060945474,-0.1130464944,1.4143269294,-0.2255438716,10.2891307717
1520531835090039058,-0.1615553658,0.0183738635,-0.1286396528,1.4924938307,-0.2207533978,10.2779059701
1520531835095057058,-0.1640588784,0.0315128631,-0.1388156908,1.5153426173,-0.2015689306,10.2881241602
1520531835100072058,-0.1670652161,0.0417254371,-0.1444137460,1.4924938307,-0.1967705894,10.2918283107
1520531835105088058,-0.1715827339,0.0496070726,-0.1502973314,1.5213554558,-0.1967728372,10.3147902685
1520531835110103058,-0.1750950173,0.0557327821,-0.1532201173,1.5417991069,-0.1859821656,10.3784986759
1520531835115118058,-0.1808702682,0.0601056561,-0.1547993117,1.6031300603,-0.1955800656,10.3651274893
1520531835120135058,-0.1858954999,0.0595158189,-0.1529006022,1.6307891177,-0.2003787815,10.3962408371
1520531835125150058,-0.1891597933,0.0597986392,-0.1501868527,1.6416122271,-0.1488165863,10.4239766649
1520531835130166058,-0.1969463679,0.0600760451,-0.1461119728,1.6957277742,-0.1428250988,10.4676055609
1520531835135182058,-0.2034763190,0.0594754192,-0.1404228203,1.6849046648,-0.1452225367,10.4549296616
1520531835140198058,-0.2100137032,0.0542162830,-0.1361219667,1.6849046648,-0.1380276942,10.4711926609
1520531835145213058,-0.2173012478,0.0504079465,-0.1296442304,1.6548404720,-0.1260339485,10.4854193214
1520531835150229058,-0.2258446709,0.0468897740,-0.1228913914,1.6800943939,-0.1392264600,10.4410249077
1520531835155245058,-0.2321249972,0.0442459126,-0.1158655378,1.7077534513,-0.1176440865,10.4767611059
1520531835160261058,-0.2381531034,0.0413063946,-0.1072190986,1.6524353365,-0.0864621272,10.4598369763
1520531835165276058,-0.2441835422,0.0363257281,-0.0980471293,1.6103454666,-0.0816622874,10.4672148397
1520531835170292058,-0.2519754408,0.0325230222,-0.0937328266,1.6139531697,-0.0684720237,10.4520589904
1520531835175308058,-0.2590108044,0.0301753490,-0.0885971710,1.6007249249,-0.0420899041,10.5451335369
1520531835180324058,-0.2640433438,0.0225849989,-0.0840463565,1.6055351957,-0.0300988745,10.5520478870
1520531835185340058,-0.2703298251,0.0170345766,-0.0797481927,1.6007249249,-0.0133105340,10.5555647683
1520531835190355058,-0.2751037188,0.0146885179,-0.0748872836,1.5959146540,-0.0121110189,10.5521239873
1520531835195370058,-0.2783723717,0.0103026299,-0.0697741904,1.6223711437,-0.0013208156,10.5750988311
1520531835200386058,-0.2821414229,0.0073727392,-0.0643785025,1.6223711437,0.0202637120,10.6087799577
1520531835205402058,-0.2886763020,0.0029833860,-0.0584477043,1.5790787060,-0.0145079885,10.6568831527
