#timestamp [ns],w_RS_S_x [rad s^-1],w_RS_S_y [rad s^-1],w_RS_S_z [rad s^-1],a_RS_S_x [m s^-2],a_RS_S_y [m s^-2],a_RS_S_z [m s^-2]
1520429891560729617,-0.0492186733,0.0230807540,-0.1290832547,0.6194296711,-0.1751180646,9.7006388532
1520429891565745617,-0.0590060884,0.0315212381,-0.1268362158,0.6663298119,-0.2122950705,9.7013807495
1520429891570761617,-0.0652730343,0.0408336120,-0.1232363124,0.6687349473,-0.1859141685,9.6409001283
1520429891575777617,-0.0695396180,0.0437406845,-0.1213123259,0.6326579159,-0.1403440226,9.5865860792
1520429891580793617,-0.0715446455,0.0460636887,-0.1185853485,0.6531015671,-0.1571335807,9.6073220552
1520429891585809617,-0.0753110505,0.0475154924,-0.1172145028,0.6867734630,-0.1571362032,9.5884000104
1520429891590824617,-0.0732977587,0.0486774476,-0.1155860688,0.7216479267,-0.1619354810,9.5357687631
1520429891595839617,-0.0702778721,0.0477862647,-0.1088346914,0.7348761716,-0.1991098644,9.5461355526
1520429891600855617,-0.0650012593,0.0463270390,-0.1072323326,0.7156350881,-0.1595367319,9.4916634795
1520429891605873617,-0.0579647235,0.0436949517,-0.1026661284,0.7240530621,-0.1691305109,9.4857801790
1520429891610888617,-0.0504284089,0.0378527325,-0.0962314903,0.7000017079,-0.1787217611,9.4906722107
1520429891615903617,-0.0431421150,0.0337623641,-0.0911357765,0.7444967133,-0.1691321031,9.4948783447
1520429891620919617,-0.0346053526,0.0258874029,-0.0871534799,0.7685480675,-0.2015107678,9.4702707927
1520429891625936617,-0.0268193191,0.0203432225,-0.0831519985,0.7998148280,-0.2027123433,9.4223197284
1520429891630951617,-0.0182745121,0.0159539492,-0.0750848365,0.8106379375,-0.1991157650,9.4047787156
1520429891635968617,-0.0079692921,0.0130244729,-0.0678214638,0.8298790209,-0.1979181231,9.4452653038
1520429891640983617,0.0008380732,0.0156226993,-0.0575370473,0.7950045572,-0.1547463518,9.4688055333
1520429891645997617,0.0111499736,0.0150126443,-0.0459271556,0.7601300935,-0.1079771591,9.5074501262
1520429891651015617,0.0189440439,0.0100271948,-0.0329932135,0.7469018487,-0.0767984778,9.5737906844
1520429891656030617,0.0275005063,0.0129167072,-0.0227061072,0.7120273850,-0.0959820085,9.6078510151
1520429891661046617,0.0330351376,0.0120206814,-0.0137950298,0.6482912962,-0.1235572742,9.6549840361
1520429891666061617,0.0365532702,0.0093879441,-0.0094928374,0.6771529213,-0.1427457688,9.6733161274
1520429891671079617,0.0393143386,0.0044238353,-0.0052070294,0.6987991402,-0.1835182291,9.7672788542
1520429891676094617,0.0362931661,0.0006361118,-0.0057714206,0.7024068433,-0.2075013186,9.8218878917
1520429891681109617,0.0307654230,-0.0005396050,-0.0027940402,0.6975965724,-0.2194923482,9.8626214437
1520429891686126617,0.0237263311,-0.0014114164,-0.0046814625,0.6723426505,-0.2051006962,9.9186361276
1520429891691141617,0.0171861909,-0.0028563302,-0.0100913610,0.6398733222,-0.2590594865,9.9468962393
1520429891696156617,0.0071261930,-0.0063459563,-0.0141575576,0.6627221088,-0.2710526702,9.9501719685
1520429891701173617,-0.0021823703,-0.0109979114,-0.0193162302,0.6242399420,-0.2458677242,9.9144955116
1520429891706189617,-0.0112326408,-0.0109898009,-0.0236281625,0.5977834523,-0.2482639445,9.9112689296
1520429891711204617,-0.0182711956,-0.0080583163,-0.0311681485,0.6158219680,-0.2578584728,9.8797248217
1520429891716219617,-0.0243011247,-0.0030889315,-0.0378828021,0.6013911554,-0.2482642255,9.7903708432
1520429891721237617,-0.0258014767,0.0044959451,-0.0413392981,0.5977834523,-0.2350733999,9.7613394968
1520429891726252617,-0.0270440651,0.0158645484,-0.0431440855,0.6098091294,-0.1871087196,9.6786634519
1520429891731267617,-0.0255211786,0.0281083883,-0.0449473375,0.5605038532,-0.1463341051,9.6465635710
1520429891736284617,-0.0232402634,0.0420950032,-0.0445742840,0.5857577751,-0.1451369315,9.6509651713
1520429891741299617,-0.0202020684,0.0569487829,-0.0414905025,0.5677192594,-0.1703174755,9.6395438637
1520429891746314617,-0.0186778685,0.0677247737,-0.0392466815,0.5364524989,-0.1379382489,9.6537623505
1520429891751330617,-0.0181618944,0.0782177273,-0.0402497675,0.5304396603,-0.1511283253,9.6433744429
1520429891756347617,-0.0191517374,0.0887035343,-0.0388151400,0.5244268218,-0.1775089463,9.6794851562
1520429891761363617,-0.0226587478,0.0962752399,-0.0376686221,0.5232242541,-0.1835045548,9.7085563068
1520429891766379617,-0.0286812085,0.1026833366,-0.0376085129,0.4955651967,-0.1799049793,9.7611184930
1520429891771394617,-0.0324393414,0.1105470567,-0.0367298510,0.4907549258,-0.1571209366,9.7657916716
1520429891776410617,-0.0409724577,0.1189953173,-0.0371906047,0.4835395195,-0.1739083406,9.7414732497
1520429891781426617,-0.0477489914,0.1251110057,-0.0368607725,0.4101828891,-0.1379284146,9.7502871856
1520429891786441617,-0.0603094871,0.1291891084,-0.0381590427,0.3584724774,-0.1391235277,9.7554402482
1520429891791458617,-0.0751293435,0.1338439951,-0.0375548448,0.3320159877,-0.1331257650,9.7463947611
1520429891796473617,-0.0861831479,0.1364628523,-0.0377848471,0.3163826074,-0.1427176709,9.7465562816
1520429891801490617,-0.0972321145,0.1419926409,-0.0369104350,0.2742927375,-0.1630997800,9.7097972308
1520429891806506617,-0.1070207175,0.1495589714,-0.0346700654,0.2346080030,-0.1846812168,9.6567459239
1520429891811522617,-0.1127886294,0.1562490815,-0.0310911032,0.1804924559,-0.1666898957,9.6061207773
1520429891816537617,-0.1160448310,0.1611882268,-0.0261774172,0.1408077214,-0.1151237668,9.5402145572
1520429891821553617,-0.1147815663,0.1643859361,-0.0231792920,0.0902998774,-0.1462974841,9.5105208296
1520429891826569617,-0.1107472009,0.1704891041,-0.0166469733,0.0289689240,-0.1822669201,9.4623428216
1520429891831584617,-0.1016909007,0.1757295573,-0.0136477549,-0.0383748679,-0.1894565177,9.4688160405
1520429891836600617,-0.0926402303,0.1774763098,-0.0117573972,-0.0756544670,-0.1882544738,9.4285026895
1520429891841617617,-0.0793223176,0.1763138046,-0.0109793882,-0.1333777172,-0.2685923865,9.4442507494
1520429891846631617,-0.0642506762,0.1728281966,-0.0129278899,-0.1381879881,-0.3141593479,9.4954763385
1520429891851648617,-0.0499346445,0.1690552793,-0.0165004898,-0.1790752903,-0.3189527252,9.4796089724
1520429891856663617,-0.0333635174,0.1623781440,-0.0233460719,-0.2644575979,-0.3441280242,9.4874374513
1520429891861679617,-0.0225786420,0.1513294332,-0.0307553575,-0.2440139468,-0.3920952334,9.5175009817
1520429891866695617,-0.0027433980,0.1440773647,-0.0400463662,-0.3438270670,-0.3944857405,9.4789619456
1520429891871711617,0.0092903190,0.1283713643,-0.0491168301,-0.4075631558,-0.4256584275,9.5690978009
1520429891876726617,0.0185572868,0.1115016565,-0.0592732360,-0.4472478903,-0.4700235324,9.6113645157
1520429891881742617,0.0308456076,0.1001752637,-0.0715573710,-0.4628812706,-0.4304506808,9.5998566537
1520429891886758617,0.0406175959,0.0862246971,-0.0835863008,-0.4905403280,-0.4484356330,9.6547641759
1520429891891774617,0.0498902875,0.0751899642,-0.0964037039,-0.5350353333,-0.4688175548,9.6517307099
1520429891896789617,0.0591608661,0.0621133543,-0.1084250309,-0.7815617145,-0.6174917670,9.6205730698
1520429891901806617,0.0734527716,0.0508103304,-0.1290998225,-0.8669440221,-0.7194120531,9.5901256359
1520429891906822617,0.0869893654,0.0357066290,-0.1452028339,-0.6841537297,-0.5191698387,9.7996613874
1520429891911838617,0.0952649887,0.0261080288,-0.1504319696,-0.7021922454,-0.4148432170,9.7916002230
1520429891916852617,0.1002630442,0.0115677235,-0.1605626565,-0.7082050840,-0.4088470466,9.8602193949
1520429891921869617,0.1070210696,-0.0029748063,-0.1696144268,-0.7214333288,-0.4544133524,9.9347697985
1520429891926886617,0.1178046630,-0.0172389449,-0.1732605237,-0.6769383235,-0.4760013454,9.9401684793
1520429891931901617,0.1258206292,-0.0326638773,-0.1790747462,-0.5927585836,-0.4184491613,10.0729395518
1520429891936917617,0.1323370235,-0.0443115995,-0.1810696257,-0.5915560158,-0.4148518337,10.0798972024
1520429891941933617,0.1360791885,-0.0629521765,-0.1836538171,-0.4929454634,-0.3788853011,10.0719294439
1520429891946948617,0.1413382967,-0.0751831601,-0.1856508091,-0.5602892553,-0.3225204563,10.1050699988
1520429891951964617,0.1418180187,-0.0912054700,-0.1871267418,-0.5314276302,-0.2901459127,10.1593782712
1520429891956981617,0.1385416779,-0.0970293415,-0.1890589573,-0.4941480311,-0.2613694460,10.1647980700
1520429891961996617,0.1335058454,-0.1046087652,-0.1885663313,-0.4195888329,-0.1318680871,10.2115939700
1520429891967012617,0.1206927179,-0.1063803043,-0.1817922195,-0.4003477495,-0.0982936539,10.2694811453
1520429891972027617,0.1066210263,-0.1104870541,-0.1736808293,-0.3630681504,-0.0311446936,10.3666728977
1520429891977043617,0.0890364710,-0.1119785491,-0.1633785301,-0.3462322024,-0.0323451453,10.3281594458
1520429891982060617,0.0696981400,-0.1123175784,-0.1484647912,-0.3859169369,-0.0371386162,10.3541175570
1520429891987075617,0.0448230098,-0.1179000530,-0.1349335294,-0.3787015306,-0.0347408973,10.4598000878
1520429891992091617,0.0222212714,-0.1150322187,-0.1210714528,-0.3594604472,-0.0575260639,10.3701499399
1520429891997106617,-0.0001313675,-0.1136204802,-0.1074915042,-0.2909140876,-0.0455399983,10.3055531408
1520429892002123617,-0.0214680338,-0.1049266484,-0.0927756618,-0.2933192230,-0.0647260577,10.2405151989
1520429892007139617,-0.0412939590,-0.0939004212,-0.0783153809,-0.3089526033,-0.0899067890,10.1779361472
1520429892012154617,-0.0601182918,-0.0837399410,-0.0668396411,-0.2969269262,-0.1090939724,10.1487842072
1520429892017170617,-0.0759255410,-0.0718270585,-0.0564383469,-0.2873063845,-0.1774457258,10.1208657642
1520429892022186617,-0.0917357697,-0.0575627036,-0.0535945532,-0.2921166553,-0.2493937766,10.0930912899
1520429892027201617,-0.1060423414,-0.0465037163,-0.0505074679,-0.3390167961,-0.3333299535,10.1029267925
1520429892032218617,-0.1183413295,-0.0342638346,-0.0528261420,-0.3871195046,-0.3992789304,10.0848650051
1520429892037232617,-0.1276257392,-0.0211413335,-0.0578492064,-0.4123734266,-0.4448442996,10.0537773595
1520429892042249617,-0.1356591943,-0.0106342451,-0.0653295252,-0.4328170777,-0.4436435670,10.0225972893
1520429892047264617,-0.1426914607,-0.0042112452,-0.0709490129,-0.4256016715,-0.4568346736,10.0434585129
1520429892052281617,-0.1459530568,0.0030873851,-0.0765688322,-0.4604761351,-0.4580310979,10.0461234168
1520429892057297617,-0.1471994676,0.0135905760,-0.0816268395,-0.4761095154,-0.4436401952,10.0230186713
1520429892062312617,-0.1454369415,0.0170922501,-0.0832267050,-0.5145916822,-0.4196543896,9.9978026794
1520429892067327617,-0.1429239964,0.0173860761,-0.0837702409,-0.5626943907,-0.3980661156,10.0017362654
1520429892072345617,-0.1371344438,0.0246736822,-0.0839959443,-0.6119996670,-0.3824734500,9.9359587659
1520429892077361617,-0.1275838965,0.0270150556,-0.0864308082,-0.6252279118,-0.3560913305,9.9383860840
1520429892082376617,-0.1165286376,0.0264402607,-0.0878085196,-0.5590866876,-0.3596939030,9.8703414645
1520429892087392617,-0.1044635691,0.0273140412,-0.0859304318,-0.5795303387,-0.3465017662,9.8542575724
1520429892092407617,-0.0913908002,0.0290579984,-0.0824242663,-0.5723149324,-0.3237186601,9.8204629499
1520429892097422617,-0.0803262696,0.0310867251,-0.0767477767,-0.5759226356,-0.2973372898,9.7902565968
1520429892102439617,-0.0687593648,0.0316528986,-0.0689189688,-0.5711123647,-0.2841471198,9.7425490118
1520429892107455617,-0.0607124039,0.0307600427,-0.0608241963,-0.5206045208,-0.2541725429,9.7176231429
1520429892112470617,-0.0556735488,0.0356951527,-0.0532204533,-0.4953505988,-0.2685641948,9.7011213534
1520429892117487617,-0.0503846338,0.0371220919,-0.0413151196,-0.4400324840,-0.2769624862,9.7110504018
1520429892122503617,-0.0468577116,0.0373871744,-0.0310386866,-0.4965531665,-0.2877503480,9.7116110635
1520429892127518617,-0.0435832291,0.0379486420,-0.0226533851,-0.5338327656,-0.2877474445,9.7305682235
1520429892132535617,-0.0430735199,0.0373398464,-0.0129191124,-0.4989583019,-0.3381140584,9.7616557759
1520429892137550617,-0.0413109232,0.0344019236,-0.0037460499,-0.4688941091,-0.3644974892,9.8276310803
1520429892142566617,-0.0392982157,0.0305899458,0.0054198767,-0.4965531665,-0.3788850201,9.7628342672
1520429892147581617,-0.0377949665,0.0227027582,0.0129323381,-0.5302250625,-0.4280471550,9.7690206715
1520429892152597617,-0.0365424399,0.0168624482,0.0177553689,-0.5506687136,-0.4868034435,9.7739255309
1520429892157614617,-0.0352950999,0.0089904592,0.0195868333,-0.5398456042,-0.5179819375,9.7378241256
1520429892162629617,-0.0315341992,0.0017029523,0.0211475307,-0.5446558750,-0.5407652309,9.6867588293
1520429892167646617,-0.0265112179,-0.0017975204,0.0232758864,-0.5867457450,-0.5503550762,9.6592864061
1520429892172661617,-0.0199866417,-0.0079111219,0.0221348832,-0.5518712813,-0.5767388816,9.6717562684
1520429892177677617,-0.0142166677,-0.0151934706,0.0220685714,-0.5206045208,-0.5983258444,9.6633379774
1520429892182692617,-0.0094467846,-0.0183953729,0.0214941579,-0.5338327656,-0.6187102014,9.7122966579
1520429892187709617,-0.0026611477,-0.0192726956,0.0236392543,-0.5061737082,-0.6139157938,9.7108606202
1520429892192724617,0.0003564141,-0.0192780700,0.0260685667,-0.4929454634,-0.6067219816,9.6828333937
1520429892197740617,0.0006094653,-0.0207472775,0.0306562648,-0.5290224948,-0.5731432399,9.7691504565
1520429892202755617,-0.0016512637,-0.0228002387,0.0352441839,-0.5350353333,-0.5851341758,9.7390049324
1520429892207772617,-0.0046681355,-0.0274803265,0.0414367708,-0.4989583019,-0.5551584751,9.7409488351
1520429892212787617,-0.0096903799,-0.0274946789,0.0460453855,-0.5446558750,-0.5083884395,9.7390237351
1520429892217804617,-0.0164692149,-0.0281034161,0.0547110096,-0.5650995262,-0.4784083367,9.7775442381
1520429892222819617,-0.0229952965,-0.0266679925,0.0617684531,-0.6132022347,-0.4772054498,9.7826598468
1520429892227836617,-0.0312786195,-0.0228978113,0.0672236730,-0.6733306203,-0.5443526305,9.7496084079
1520429892232851617,-0.0385554221,-0.0162046498,0.0694527061,-0.8344746939,-0.6210850672,9.6977931013
1520429892237867617,-0.0455886217,-0.0138763304,0.0694835590,-0.8982107826,-0.7074182137,9.6740926387
1520429892242883617,-0.0508576211,-0.0060030029,0.0665773787,-0.9439083557,-0.7937527651,9.6107037058
1520429892247898617,-0.0541190839,0.0018805817,0.0601503679,-0.9811879548,-0.7769618957,9.5401594106
1520429892252915617,-0.0604044478,0.0036439098,0.0536822730,-1.0160624185,-0.8141325327,9.5858587209
1520429892257930617,-0.0588972154,0.0074514386,0.0466741794,-1.0557471530,-0.8764847440,9.5502793309
1520429892262944617,-0.0566462835,0.0074880179,0.0334132300,-1.0858113459,-0.8680884195,9.5389423324
1520429892267962617,-0.0526359070,0.0081095122,0.0196123679,-1.1170781064,-0.8932679332,9.4834883102
1520429892272977617,-0.0438564353,0.0064098137,0.0028088486,-1.0810010750,-0.8776819175,9.4738248054
1520429892277994617,-0.0340690006,0.0052867222,-0.0115571785,-1.0545445853,-0.8381123441,9.4700422741
1520429892283009617,-0.0252913754,0.0027150554,-0.0291790048,-1.0160624185,-0.8237256561,9.3883036034
1520429892288025617,-0.0112337541,-0.0004489678,-0.0424863441,-0.9427057880,-0.7685709099,9.3212936000
1520429892293041617,0.0033325767,-0.0004133917,-0.0536057958,-0.9042236212,-0.7074177454,9.2639143481
1520429892298056617,0.0181534094,-0.0012664393,-0.0593214656,-0.8416901001,-0.6510630158,9.2353592714
1520429892303073617,0.0369960779,-0.0018287124,-0.0642307421,-0.8140310427,-0.5875107276,9.2396766559
1520429892308089617,0.0548400589,0.0010994075,-0.0669471076,-0.8308669907,-0.5683231696,9.2793347117
1520429892313103617,0.0711758040,0.0025649150,-0.0677779668,-0.8344746939,-0.4831839185,9.3641233124
1520429892318121617,0.0844978920,0.0028520481,-0.0642833834,-0.7851694176,-0.4232307374,9.4182057040
1520429892323136617,0.0973163277,0.0028497850,-0.0616017274,-0.7659283342,-0.3177078787,9.4888063025
1520429892328153617,0.1043503544,-0.0021155638,-0.0562416701,-0.6997871100,-0.2613534301,9.5857276576
1520429892333169617,0.1111401115,-0.0056408424,-0.0446474752,-0.6156073701,-0.1690261737,9.6324661666
1520429892338183617,0.1154283985,-0.0039367526,-0.0275976795,-0.3330039576,0.1331352029,9.5771243269
1520429892343199617,0.1116930039,0.0015099364,0.0051876134,-0.1971138060,0.2194627298,9.6756618432
1520429892348214617,0.1034517508,0.0235805252,0.0318854675,-0.3257885513,-0.0563295459,9.6469674895
1520429892353231617,0.1032252525,0.0369622621,0.0401045730,-0.5578841199,-0.1018788057,9.6632167277
1520429892358247617,0.0974798045,0.0535295804,0.0548515019,-0.6059868284,-0.1918105910,9.7300148358
1520429892363262617,0.0957539578,0.0721512774,0.0647366987,-0.6083919638,-0.2781485142,9.7522031734
1520429892368278617,0.0874813297,0.0852523194,0.0678281442,-0.5218070885,-0.2122025344,10.0209134931
1520429892373294617,0.0812224324,0.0995138596,0.0730891155,-0.5807329064,-0.3213197236,10.0634306331
1520429892378309617,0.0704277128,0.1073755514,0.0737102997,-0.5374404688,-0.3872758187,10.1165321866
1520429892383326617,0.0563697622,0.1187362197,0.0730114989,-0.4688941091,-0.3776880339,10.1228285074
1520429892388341617,0.0420572942,0.1251315978,0.0766041066,-0.4460453226,-0.4364476942,10.0959340980
1520429892393358617,0.0259769800,0.1254086684,0.0796122049,-0.4039554526,-0.4400483935,10.2407959233
1520429892398373617,0.0081395500,0.1256784940,0.0850584832,-0.3859169369,-0.4892145558,10.1744260850
1520429892403389617,-0.0071913134,0.1218728344,0.0893867876,-0.2596473271,-0.4568475987,10.1650304742
1520429892408404617,-0.0257816756,0.1215537681,0.0969943871,-0.2367985405,-0.4616459399,10.1415698764
1520429892413420617,-0.0431159003,0.1191874897,0.1075600962,-0.1947086706,-0.4568526563,10.1388312342
1520429892418437617,-0.0624650007,0.1144937179,0.1164884791,-0.0588185190,-0.4328804314,10.2258081166
1520429892423453617,-0.0785482277,0.1092191855,0.1251358026,-0.0203363522,-0.5204206794,10.1139530969
1520429892428469617,-0.0895931171,0.1123938597,0.1349204446,0.0013098666,-0.5372103312,10.0277601240
1520429892433484617,-0.1044093825,0.1135244517,0.1457787094,0.1311871796,-0.5540084125,10.0462687959
1520429892438501617,-0.1116853226,0.1143607854,0.1587851167,0.1059332577,-0.5911797987,10.0012272374
1520429892443516617,-0.1222317073,0.1140368569,0.1693537859,0.0782742003,-0.5815845212,9.9921899474
1520429892448531617,-0.1247352043,0.1166386655,0.1766832001,0.0085252729,-0.5276177698,9.9056554238
1520429892453548617,-0.1217104720,0.1215853712,0.1796913967,-0.0395774356,-0.5204191809,9.8677658595
1520429892458563617,-0.1154163028,0.1285737769,0.1824385416,-0.0251466230,-0.5468013941,9.7119238344
1520429892463578617,-0.1061073827,0.1352734364,0.1846367710,-0.0960981181,-0.5431984469,9.6940166215
1520429892468594617,-0.0920159087,0.1480954986,0.1863317256,-0.0924904150,-0.5779738002,9.6858804095
1520429892473611617,-0.0731419710,0.1661621675,0.1888694657,-0.1285674464,-0.5791701308,9.5804776307
1520429892478627617,-0.0522607593,0.1845326636,0.1870769608,-0.0816673055,-0.6175462771,9.6253821665
1520429892483642617,-0.0331343702,0.2066933830,0.1842344395,-0.1466059620,-0.6319309045,9.6399739991
1520429892488658617,-0.0140127757,0.2256503295,0.1808263724,-0.1381879881,-0.6163427346,9.6596333095
1520429892493674617,0.0033407610,0.2414166541,0.1717156546,-0.1153392015,-0.5887642844,9.6884376175
1520429892498689617,0.0184269315,0.2525177548,0.1633852057,-0.0299568939,-0.6175503045,9.7341203808
1520429892503705617,0.0345120521,0.2598348927,0.1536712603,0.0602356846,-0.6319470140,9.8250659060
1520429892508721617,0.0458141798,0.2610310848,0.1439194978,0.0710587940,-0.6571298059,9.8482279957
1520429892513737617,0.0568590692,0.2578564106,0.1341348558,0.0975152837,-0.6427421813,9.8572536041
1520429892518753617,0.0689111768,0.2558462114,0.1248983310,0.1504282631,-0.6487420045,9.8613930041
1520429892523769617,0.0784426004,0.2494700872,0.1134687601,0.1516308308,-0.6391489747,9.8520747927
1520429892528785617,0.0879751648,0.2427974795,0.1039307873,0.2129617841,-0.6211666450,9.8410009991
1520429892533800617,0.0965033258,0.2367072470,0.0943991275,0.1997335393,-0.6043776489,9.8306540884
1520429892538817617,0.1012603225,0.2256452468,0.0910592318,0.2189746227,-0.5744006368,9.8443833015
1520429892543833617,0.1090303098,0.2128368493,0.0874298510,0.2273925967,-0.6007823818,9.8001656213
1520429892548847617,0.1160501839,0.2026498888,0.0840924240,0.2273925967,-0.5959858201,9.8257281109
1520429892553865617,0.1210567113,0.1872033789,0.0858590873,0.1889104299,-0.6487450016,9.7912898050
1520429892558880617,0.1245575196,0.1755544752,0.0838698084,0.1323897474,-0.6679268463,9.7930207961
1520429892563895617,0.1265569958,0.1662251305,0.0859593031,0.0542228460,-0.7230812179,9.7647818155
1520429892568911617,0.1288042503,0.1539805822,0.0885671920,0.0025124344,-0.7698436671,9.7444121460
1520429892573927617,0.1280358326,0.1423205351,0.0901029441,-0.0504005450,-0.8118094608,9.7856431337
1520429892578943617,0.1277751169,0.1347415252,0.0911277942,-0.1021109567,-0.8561736291,9.8222161793
1520429892583958617,0.1275078463,0.1225010913,0.0918465290,-0.2163548894,-0.8813466803,9.8303255795
1520429892588976617,0.1302540995,0.1108540776,0.0890470127,-0.2247728634,-0.9017314119,9.8490216969
1520429892593991617,0.1302368184,0.1015450698,0.0832944101,-0.1850881289,-0.9221198899,9.9195460900
1520429892599005617,0.1294718859,0.0960201233,0.0789248374,-0.1802778580,-0.8945400348,9.9496881178
1520429892604022617,0.1292092924,0.0922524220,0.0713211189,-0.1490110975,-0.8525725551,9.9690993067
1520429892609038617,0.1249281601,0.0896464983,0.0645453980,-0.0732493316,-0.8957475109,9.9602689767
1520429892614053617,0.1191438962,0.0896588025,0.0591452147,0.0229560855,-0.8657764931,9.9802219299
1520429892619070617,0.1126059083,0.0884994457,0.0559019064,0.0638433877,-0.8358011670,10.0425504980
1520429892624085617,0.1050630740,0.0864604425,0.0545476171,0.1035281222,-0.8453973812,10.0270657144
1520429892629102617,0.0927463107,0.0852951791,0.0526677729,0.1323897474,-0.8298108035,10.0453638949
1520429892634117617,0.0809260332,0.0809307102,0.0485981742,0.1552385339,-0.8298125830,10.0521143626
1520429892639134617,0.0678505748,0.0750979000,0.0485779821,0.1768847527,-0.7530692818,10.0460181141
1520429892644150617,0.0542686415,0.0643018863,0.0520380276,0.1576436693,-0.7242884131,10.0577987704
1520429892649165617,0.0409405632,0.0570098696,0.0528188245,0.1396051536,-0.7290835699,10.0335740006
1520429892654180617,0.0291181725,0.0506035238,0.0495453019,0.1083383931,-0.7015009050,10.0292028614
1520429892659197617,0.0215692694,0.0450722769,0.0465410601,0.0674510909,-0.6595278057,9.9958577318
1520429892664212617,0.0137726272,0.0406999137,0.0459810904,0.0530202783,-0.6427387159,10.0017925415
1520429892669228617,0.0069774010,0.0351696905,0.0427049026,0.0782742003,-0.6079656105,10.0224314156
1520429892674244617,0.0027002205,0.0325506551,0.0407990079,0.0915024451,-0.6547331172,10.0060782489
1520429892679260617,-0.0010750681,0.0287633647,0.0399654709,0.0686536586,-0.7014978142,10.0261026964
1520429892684276617,-0.0040993221,0.0220588822,0.0404610324,0.0241586532,-0.7038926296,10.0718617364
1520429892689291617,-0.0033495577,0.0203166979,0.0382819266,-0.1045160921,-0.7302636973,10.0673291831
1520429892694306617,-0.0028550909,0.0174168897,0.0331183902,-0.1923035351,-0.7710276346,10.1019255844
1520429892699323617,-0.0056300612,0.0124753815,0.0282159056,-0.2440139468,-0.7614304838,10.1535538811
1520429892704340617,-0.0104160767,0.0089987494,0.0200817195,-0.2692678688,-0.8081949934,10.1364131322
1520429892709355617,-0.0131923171,0.0052322489,0.0116710305,-0.3762963952,-0.8801350831,10.1282278910
1520429892714370617,-0.0189853706,0.0023467333,0.0002966067,-0.4412350517,-0.9113076765,10.0951881922
1520429892719387617,-0.0277973502,-0.0016996745,-0.0132454760,-0.4640838383,-0.9520766713,10.0873153381
1520429892724402617,-0.0358560488,-0.0060364430,-0.0270617278,-0.4761095154,-0.9640671390,10.0723362107
1520429892729418617,-0.0469249702,-0.0080506010,-0.0381491353,-0.4532607288,-0.9952465695,10.0570363460
1520429892734434617,-0.0597497687,-0.0065637350,-0.0511004200,-0.4821223540,-1.0108331472,9.9597123766
1520429892739450617,-0.0745836366,-0.0036185486,-0.0648484932,-0.4592735674,-1.0168306288,9.9339286602
1520429892744465617,-0.0894182926,0.0002073473,-0.0810248101,-0.4472478903,-1.0504074973,9.9152500479
1520429892749482617,-0.1055099327,0.0014000921,-0.0934311587,-0.4496530257,-1.0719918376,9.8467280128
1520429892754498617,-0.1226030320,0.0040435382,-0.1036601578,-0.4869326248,-1.0923743213,9.7808685430
1520429892759513617,-0.1399536675,0.0058294862,-0.1201179150,-0.4568684320,-1.1283508755,9.6899637683
1520429892764528617,-0.1578021531,0.0096483732,-0.1341242642,-0.5109839791,-1.1259483800,9.6498131188
1520429892769544617,-0.1698713850,0.0117153899,-0.1459903193,-0.4881351925,-1.1667209339,9.6043068660
1520429892774560617,-0.1819454939,0.0126277951,-0.1619234552,-0.4496530257,-1.2014990033,9.5609668887
1520429892779577617,-0.1892478771,0.0097467877,-0.1751888999,-0.4171836975,-1.2350774640,9.4700363653
1520429892784592617,-0.1945391209,0.0077421785,-0.1889925010,-0.4231965360,-1.2362761361,9.4398803171
1520429892789608617,-0.1973190974,0.0025245828,-0.1995786726,-0.4556658643,-1.2278796243,9.3971888419
1520429892794623617,-0.1978403327,-0.0050239315,-0.2099162834,-0.4268042392,-1.2554621019,9.3039632990
1520429892799640617,-0.1971002791,-0.0093681805,-0.2196906821,-0.4628812706,-1.2506627304,9.2647968789
1520429892804656617,-0.1928448176,-0.0172142213,-0.2270633789,-0.4688941091,-1.2338742962,9.2508933060
1520429892809672617,-0.1853226949,-0.0265217324,-0.2322888913,-0.4809197862,-1.1763146193,9.2346842129
1520429892814686617,-0.1790567094,-0.0337820312,-0.2404725134,-0.4508555934,-1.2050963309,9.1809610288
1520429892819703617,-0.1742958002,-0.0431008233,-0.2419052494,-0.4316145100,-1.1931064253,9.1935456380
1520429892824719617,-0.1637480669,-0.0474645423,-0.2430403816,-0.4676915414,-1.1547311219,9.1880486510
1520429892829734617,-0.1574754953,-0.0547466941,-0.2431076268,-0.4424376194,-1.1775167568,9.1413393041
1520429892834751617,-0.1522060097,-0.0614508413,-0.2415452836,-0.4929454634,-1.1978982103,9.1383643634
1520429892839766617,-0.1449275841,-0.0687347845,-0.2408027580,-0.5025660051,-1.1954991802,9.1407799531
1520429892844781617,-0.1373990515,-0.0783562615,-0.2376435708,-0.5434533073,-1.1942968553,9.1039881491
1520429892849798617,-0.1301184696,-0.0838911691,-0.2371582526,-0.5290224948,-1.1499297836,9.1398308855
1520429892854813617,-0.1228315053,-0.0835932872,-0.2385222939,-0.5614918230,-1.1187496037,9.1157114961
1520429892859830617,-0.1193167560,-0.0870928938,-0.2369322297,-0.5254147916,-1.1247481157,9.1374469263
1520429892864845617,-0.1130378960,-0.0908835302,-0.2350789766,-0.4905403280,-1.1211534105,9.0964289332
1520429892869862617,-0.1080166278,-0.0946710169,-0.2345761194,-0.4725018123,-1.0899771644,9.0846015150
1520429892874877617,-0.1060072997,-0.0978863855,-0.2305461187,-0.5001608697,-1.1019664145,9.1453139103
1520429892879894617,-0.1032455687,-0.1013892011,-0.2278724707,-0.5133891145,-1.0719868736,9.1256569852
1520429892884909617,-0.0997250093,-0.0996395156,-0.2278656663,-0.4857300571,-1.0168285683,9.0997668124
1520429892889924617,-0.0939427212,-0.0996452638,-0.2249003961,-0.4484504580,-1.0120349101,9.1063721420
1520429892894939617,-0.0906722767,-0.0984850017,-0.2224626581,-0.4183862652,-1.0108381112,9.1606991121
1520429892899957617,-0.0879015759,-0.0973344060,-0.2165068900,-0.3835118015,-1.0276287932,9.1696731878
1520429892904972617,-0.0833745549,-0.0982228129,-0.2105699506,-0.4123734266,-1.0264274050,9.2268979936
1520429892909988617,-0.0775823757,-0.0938709050,-0.2027015080,-0.4304119423,-1.0036423320,9.2514563750
1520429892915002617,-0.0717956889,-0.0909642649,-0.1991729151,-0.4171836975,-0.9880545368,9.2850145927
1520429892920019617,-0.0642530820,-0.0918514903,-0.1932415763,-0.4388299163,-1.0156330806,9.2899007543
1520429892925035617,-0.0582108311,-0.0866173176,-0.1883429360,-0.4207914006,-0.9952490983,9.2804081481
1520429892930051617,-0.0501617962,-0.0837119767,-0.1840069060,-0.4123734266,-1.0192325624,9.2664038720
1520429892935068617,-0.0436209033,-0.0799279738,-0.1815552276,-0.3859169369,-1.0504122740,9.2940682185
1520429892940083617,-0.0348103194,-0.0723645557,-0.1755617530,-0.4063605880,-1.0396184179,9.3233102792
1520429892945098617,-0.0262536296,-0.0665488147,-0.1698516961,-0.4292093746,-1.0707942894,9.3375088056
1520429892950115617,-0.0176993978,-0.0604322196,-0.1676565127,-0.3666758535,-1.0947819682,9.3462206811
1520429892955131617,-0.0116547672,-0.0519862612,-0.1651683315,-0.3991451818,-1.0995760011,9.3395685312
1520429892960146617,-0.0048534683,-0.0415003158,-0.1626659889,-0.4604761351,-1.1019695052,9.3343571080
1520429892965161617,0.0049596373,-0.0321714428,-0.1628835983,-0.4388299163,-1.1115643145,9.3504257871
1520429892970177617,0.0115073087,-0.0222632658,-0.1622790564,-0.4544632966,-1.1355459054,9.3982492417
1520429892975194617,0.0170526427,-0.0109014738,-0.1605793486,-0.5145916822,-1.0887747459,9.4987332704
1520429892980209617,0.0225965771,0.0025138500,-0.1640044513,-0.5206045208,-1.0875751372,9.5069256340
1520429892985224617,0.0253670742,0.0095190882,-0.1680144196,-0.4941480311,-1.0731875126,9.5008433709
1520429892990241617,0.0278924235,0.0179673103,-0.1668724338,-0.4496530257,-1.0851823823,9.5596913189
1520429892995256617,0.0281550249,0.0246619686,-0.1641163106,-0.4412350517,-1.0707933528,9.6130539733
1520429893000273617,0.0281620189,0.0293219357,-0.1632691035,-0.4544632966,-1.0228267056,9.6305681147
1520429893005289617,0.0259158072,0.0374652478,-0.1577917387,-0.4219939683,-1.0348206387,9.6802359616
1520429893010305617,0.0246676244,0.0421203520,-0.1553189227,-0.3895246401,-0.9796627080,9.7217033178
1520429893015320617,0.0201541366,0.0464762360,-0.1504073492,-0.4075631558,-0.9304965457,9.7927217319
1520429893020337617,0.0141373840,0.0528653934,-0.1433130467,-0.4436401871,-0.9209006126,9.8128199761
1520429893025351617,0.0118892787,0.0589661001,-0.1367690599,-0.4376273486,-0.8573466384,9.8859145450
1520429893030368617,0.0081312282,0.0647806589,-0.1323888630,-0.4496530257,-0.7758041530,9.9870586045
1520429893035383617,0.0026159755,0.0711736554,-0.1266482234,-0.4448427549,-0.7518217192,10.0357984436
1520429893040399617,-0.0023994042,0.0766977943,-0.1228090078,-0.4243991037,-0.7194465200,10.0785672117
1520429893045414617,-0.0086721131,0.0819315132,-0.1195107734,-0.4268042392,-0.6846712604,10.1703660834
1520429893050431617,-0.0136863951,0.0874520099,-0.1143188283,-0.4773120831,-0.6462948331,10.1859281483
1520429893055448617,-0.0212147200,0.0926823229,-0.1099360768,-0.4604761351,-0.6079236508,10.1578354038
1520429893060463617,-0.0272353813,0.0987917507,-0.1071727316,-0.4929454634,-0.5635529263,10.1720539022
1520429893065478617,-0.0294866934,0.1043177010,-0.1036091959,-0.4833249217,-0.5455665692,10.2184284798
1520429893070495617,-0.0357558779,0.1139302006,-0.1032536201,-0.5362379010,-0.5395667461,10.3130713159
1520429893075511617,-0.0405232950,0.1197582058,-0.1040119283,-0.6071893961,-0.4987904458,10.3474243314
1520429893080525617,-0.0435310009,0.1273410348,-0.1069245323,-0.6504818338,-0.4628128613,10.3710535123
1520429893085541617,-0.0488062455,0.1314300055,-0.1112123422,-0.6480766983,-0.4640121890,10.4082198781
1520429893090557617,-0.0515696035,0.1340601244,-0.1144337512,-0.6601023755,-0.4364310227,10.5059301260
1520429893095572617,-0.0553416263,0.1364086630,-0.1214431590,-0.7214333288,-0.4196382801,10.4890785538
1520429893100589617,-0.0555965201,0.1384693807,-0.1292729617,-0.6865588652,-0.4196409963,10.4829283874
1520429893105605617,-0.0561039909,0.1387780507,-0.1357629066,-0.6889640006,-0.3788700345,10.5340463740
1520429893110621617,-0.0543517519,0.1376306841,-0.1422681675,-0.6865588652,-0.3944590474,10.5386867411
1520429893115635617,-0.0515937061,0.1353108889,-0.1460787287,-0.6228227764,-0.4148493985,10.5497076914
1520429893120653617,-0.0475698865,0.1385220646,-0.1476850177,-0.6083919638,-0.3968634161,10.5809275774
1520429893125669617,-0.0423053602,0.1327124671,-0.1536912903,-0.5927585836,-0.4040594762,10.6295924738
1520429893130685617,-0.0377854548,0.1309695743,-0.1550657594,-0.5590866876,-0.3824775711,10.6536487071
1520429893135700617,-0.0345194050,0.1306809265,-0.1556151416,-0.4965531665,-0.3441099479,10.7029748154
1520429893140716617,-0.0307561639,0.1283615252,-0.1594275697,-0.5254147916,-0.3572982447,10.7392950620
1520429893145731617,-0.0305087855,0.1236914585,-0.1564876009,-0.4676915414,-0.3585018808,10.7526801161
1520429893150748617,-0.0305128353,0.1198998175,-0.1551637716,-0.4472478903,-0.3621008943,10.7431874865
1520429893155763617,-0.0307676507,0.1184478954,-0.1570682415,-0.4280068069,-0.3501109886,10.7534478078
1520429893160780617,-0.0325236258,0.1181441668,-0.1527384632,-0.4388299163,-0.3740929541,10.7593872599
1520429893165794617,-0.0357849240,0.1219294288,-0.1521624039,-0.4448427549,-0.3884821709,10.7757298326
1520429893170811617,-0.0392971251,0.1260059770,-0.1515836548,-0.4725018123,-0.3860817359,10.7934288695
1520429893175827617,-0.0415528751,0.1303758588,-0.1515461080,-0.4568684320,-0.4400442725,10.7689243010
1520429893180843617,-0.0453088948,0.1402814559,-0.1514635223,-0.4893377602,-0.4052666714,10.7633957069
1520429893185859617,-0.0445438643,0.1496111551,-0.1532876050,-0.5097814114,-0.3824814111,10.7565996117
1520429893190874617,-0.0483015502,0.1604003754,-0.1567154466,-0.5699097970,-0.3740827452,10.7502038155
1520429893195889617,-0.0520595850,0.1720688483,-0.1620304403,-0.5987714221,-0.3105260549,10.7666927772
1520429893200907617,-0.0555705354,0.1840441012,-0.1730251414,-0.6456715629,-0.2241842917,10.7414979150
1520429893205923617,-0.0613446689,0.1957307257,-0.1853705946,-0.6745331880,-0.1510344780,10.7300860671
1520429893210937617,-0.0651047580,0.2109183942,-0.1990458340,-0.7070025163,-0.1462353875,10.7094788351
1520429893215952617,-0.0671065001,0.2266946201,-0.2146137155,-0.7394718445,-0.0910723992,10.7260110974
1520429893220969617,-0.0706224059,0.2410279012,-0.2356008301,-0.6877614329,-0.0479073713,10.6906013651
1520429893225984617,-0.0756504170,0.2518625203,-0.2560707296,-0.6841537297,-0.0167300013,10.6405636571
1520429893231000617,-0.0804352211,0.2580409129,-0.2787410323,-0.6985845423,0.0468255651,10.6348314230
1520429893236017617,-0.0842146966,0.2648046537,-0.3022203934,-0.6805460266,0.0684086878,10.6334726551
1520429893241032617,-0.0877466995,0.2692396021,-0.3265296437,-0.6745331880,0.0911918875,10.5950411619
1520429893246047617,-0.0905273151,0.2713415842,-0.3500464410,-0.6372535889,0.1175700734,10.6109225950
1520429893251064617,-0.0925519249,0.2740222603,-0.3719369171,-0.5735175001,0.1379504966,10.5393915670
1520429893256080617,-0.0933231731,0.2711525539,-0.3884610474,-0.5675046616,0.1295560453,10.4870447492
1520429893261096617,-0.0961109317,0.2621557006,-0.4023226698,-0.5037685728,0.1103648346,10.4225251732
1520429893266110617,-0.0951264871,0.2525659001,-0.4118670048,-0.4568684320,0.1031663393,10.4278864118
1520429893271128617,-0.0923860792,0.2388893926,-0.4184697253,-0.3726886921,0.0815752555,10.4294123938
1520429893276143617,-0.0896468670,0.2214117746,-0.4202315198,-0.3041423324,0.0707776531,10.4206207220
1520429893281159617,-0.0871659987,0.1966399753,-0.4185313280,-0.2247728634,0.0551826460,10.3908097908
1520429893286175617,-0.0821724597,0.1680651362,-0.4109126938,-0.1237571755,0.0347893914,10.4107650360
1520429893291190617,-0.0766746176,0.1368505510,-0.3968218994,-0.0215389199,0.0263874473,10.3876975565
1520429893296206617,-0.0659020994,0.1024269761,-0.3806009929,-0.0191337845,0.0143958557,10.3528215211
1520429893301222617,-0.0604145563,0.0621729146,-0.3641442010,0.0361843303,-0.0119895419,10.3534709579
1520429893306238617,-0.0456181794,0.0292041954,-0.3465669172,0.1095409608,-0.0083978339,10.2725655086
1520429893311253617,-0.0378563701,-0.0040659493,-0.3262733293,0.1564411016,-0.0527696823,10.2175315111
1520429893316269617,-0.0268274526,-0.0358720640,-0.3081390605,0.1251743411,-0.0503689663,10.1341591392
1520429893321286617,-0.0180534501,-0.0630183693,-0.2894239300,0.1095409608,-0.0491686083,10.1029322489
1520429893326301617,-0.0085293304,-0.0913226330,-0.2734245510,0.0927050128,-0.0083965227,9.9949769744
1520429893331318617,-0.0017580973,-0.1091286671,-0.2608571036,0.0866921743,-0.0131926161,9.9555272826
1520429893336333617,0.0025066594,-0.1219814204,-0.2485177425,0.0818819034,-0.0563612967,9.8266182201
1520429893341349617,0.0037597506,-0.1301651900,-0.2391132161,0.0470074397,-0.0767439677,9.8037346664
1520429893346364617,0.0050193184,-0.1301748958,-0.2353279072,0.0409946012,-0.0803409207,9.7131494713
1520429893351380617,-0.0002532055,-0.1266803490,-0.2352914290,0.0121329761,-0.1462913962,9.6181989020
1520429893356396617,-0.0052685342,-0.1185220945,-0.2357609399,-0.0191337845,-0.1642760673,9.5499542803
1520429893361412617,-0.0090208649,-0.1083360393,-0.2316179426,-0.0371723002,-0.2086428581,9.4688230449
1520429893366428617,-0.0155360242,-0.0946435264,-0.2315013228,-0.0191337845,-0.2554107395,9.4419637623
1520429893371444617,-0.0250631588,-0.0771590970,-0.2332440235,-0.0588185190,-0.2733947551,9.3087210146
1520429893376460617,-0.0365977398,-0.0588071292,-0.2328119540,-0.1057186598,-0.2901790683,9.2080873585
1520429893381475617,-0.0458800795,-0.0433499098,-0.2391699632,-0.1814804257,-0.3585241718,9.1368385042
1520429893386491617,-0.0616922762,-0.0261520420,-0.2436086778,-0.2127471863,-0.3932968090,9.0802316928
1520429893391507617,-0.0727236832,-0.0057529013,-0.2458674391,-0.1417956912,-0.4220817051,9.0307591125
1520429893396523617,-0.0857704520,0.0111495659,-0.2484196895,-0.1550239360,-0.4628514492,8.9600368445
1520429893401539617,-0.1033428892,0.0257162710,-0.2498991400,-0.1754675872,-0.5192094569,8.9045078796
1520429893406555617,-0.1196597574,0.0391157449,-0.2505781787,-0.2211651602,-0.5719680764,8.8689776600
1520429893411571617,-0.1357244487,0.0525124036,-0.2501755006,-0.2584447593,-0.6379178963,8.7961897613
1520429893416585617,-0.1512903765,0.0606534112,-0.2457555830,-0.2740781396,-0.7110642445,8.8022239765
1520429893421602617,-0.1688731989,0.0667663228,-0.2459467735,-0.3330039576,-0.7770123785,8.7831053907
1520429893426618617,-0.1836953448,0.0690872196,-0.2442781768,-0.3955374786,-0.7949946145,8.7721101542
1520429893431634617,-0.1985155110,0.0728650390,-0.2425984646,-0.3823092338,-0.8429612617,8.6988131031
1520429893436650617,-0.2156019888,0.0722668338,-0.2393246229,-0.4448427549,-0.8861254466,8.7017881501
1520429893441666617,-0.2339481716,0.0696299015,-0.2366051009,-0.4773120831,-0.8777289348,8.6579345310
1520429893446681617,-0.2487701921,0.0696087955,-0.2308961004,-0.5061737082,-0.8645361423,8.5768525128
1520429893451698617,-0.2613383483,0.0661021594,-0.2290056200,-0.5350353333,-0.8597373328,8.5480751580
1520429893456713617,-0.2751683657,0.0588077606,-0.2274122519,-0.5578841199,-0.8453458682,8.5587428176
1520429893461728617,-0.2857267076,0.0532549361,-0.2228356080,-0.5867457450,-0.8441444799,8.5729682970
1520429893466744617,-0.2930152205,0.0485717177,-0.2160939950,-0.5759226356,-0.7937814251,8.5809488469
1520429893471761617,-0.2992972639,0.0441773639,-0.2082698422,-0.5398456042,-0.7482168988,8.5770668285
1520429893476777617,-0.3013080231,0.0377384363,-0.1980342722,-0.5434533073,-0.7530131795,8.5643230375
1520429893481792617,-0.3005525546,0.0345138342,-0.1907553871,-0.6107970992,-0.7206311431,8.5544876529
1520429893486809617,-0.2982896420,0.0321690754,-0.1853664544,-0.6733306203,-0.7278211153,8.5620761956
1520429893491824617,-0.2960317004,0.0263284308,-0.1802747446,-0.7045973809,-0.7518014886,8.5798360732
1520429893496839617,-0.2892489726,0.0213629835,-0.1749142207,-0.6865588652,-0.7554003148,8.5738532856
1520429893501856617,-0.2797038002,0.0169901295,-0.1728009353,-0.6841537297,-0.7542013617,8.5285050919
1520429893506871617,-0.2681521105,0.0091185350,-0.1696358771,-0.7334590060,-0.7506001004,8.5789536813
1520429893511888617,-0.2563471422,0.0027039617,-0.1664601702,-0.7238384643,-0.7889733432,8.5358981334
1520429893516903617,-0.2385119233,-0.0034124937,-0.1649167170,-0.7094076517,-0.8333426628,8.5462602338
1520429893521918617,-0.2174105331,-0.0136230779,-0.1574584446,-0.6913691360,-0.8333440677,8.5437603701
1520429893526935617,-0.1990730341,-0.0235433607,-0.1499928152,-0.6925717037,-0.8453353783,8.5798102311
1520429893531950617,-0.1767136953,-0.0317093904,-0.1441445903,-0.6540895369,-0.8465375158,8.5898961342
1520429893536966617,-0.1533470952,-0.0390037864,-0.1372093794,-0.6372535889,-0.8717207759,8.6385668656
1520429893541982617,-0.1304898672,-0.0509590749,-0.1308498962,-0.6059868284,-0.8249567346,8.7102698551
1520429893546997617,-0.1028516300,-0.0597138188,-0.1220399138,-0.5711123647,-0.7913835189,8.7528969933
1520429893552014617,-0.0799935277,-0.0731354996,-0.1121744494,-0.5350353333,-0.7614078181,8.8245695333
1520429893557029617,-0.0521143768,-0.0903439385,-0.1020766736,-0.4833249217,-0.7686066880,8.8624239824
1520429893562046617,-0.0270001796,-0.1104782322,-0.0879378064,-0.4496530257,-0.7290376765,8.9143541305
1520429893567061617,-0.0038960672,-0.1311997247,-0.0724469220,-0.4256016715,-0.6990610391,8.9268743794
1520429893572078617,0.0192107778,-0.1481252057,-0.0599031424,-0.4051580203,-0.6618892782,9.0010163570
1520429893577093617,0.0425644327,-0.1688407723,-0.0465770919,-0.3726886921,-0.6127270497,9.0610838632
1520429893582109617,0.0641578510,-0.1907240231,-0.0327155749,-0.3883220723,-0.5983361470,9.1193291946
1520429893587125617,0.0847481911,-0.2091023122,-0.0220720648,-0.3654732858,-0.5587662926,9.1887968475
1520429893592141617,0.1018199947,-0.2280662056,-0.0108853749,-0.3161680096,-0.5347873242,9.2812650698
1520429893597155617,0.1166362678,-0.2426609456,0.0006094077,-0.2993320616,-0.5299920737,9.3264201359
1520429893602172617,0.1286953380,-0.2517190058,0.0116104711,-0.2331908374,-0.5359929271,9.3676193868
1520429893607188617,0.1354805201,-0.2584487857,0.0229096662,-0.1971138060,-0.5144112093,9.3928143540
1520429893612221617,0.1367442983,-0.2602286515,0.0347980135,-0.1983163737,-0.5491861879,9.4614264632
1520429893617220617,0.1377577499,-0.2596702553,0.0439991533,-0.2343934051,-0.5695687653,9.4850403727
1520429893622236617,0.1349992140,-0.2599831189,0.0515773492,-0.2319882697,-0.5935517611,9.5373368273
1520429893627250617,0.1272147917,-0.2594201559,0.0578188194,-0.2788884105,-0.6211283381,9.4913344612
1520429893632267617,0.1156648466,-0.2559448244,0.0640895213,-0.3690809889,-0.6690869306,9.4504219316
1520429893637283617,0.1048774268,-0.2440095767,0.0669061959,-0.3342065253,-0.6966698764,9.4628929633
1520429893642298617,0.0925790463,-0.2344059960,0.0697078861,-0.3522450410,-0.7206512800,9.4781997973
1520429893647313617,0.0800275637,-0.2259673233,0.0722306048,-0.3811066661,-0.7770086321,9.5087514204
1520429893652330617,0.0669746712,-0.2166546940,0.0747609262,-0.3883220723,-0.8321685296,9.4902811371
1520429893657347617,0.0529228757,-0.2023874647,0.0767898151,-0.3919297755,-0.8741381634,9.5159243461
1520429893662361617,0.0421344915,-0.1898636205,0.0774465687,-0.4316145100,-0.9017153024,9.5233103715
1520429893667378617,0.0343663977,-0.1750126176,0.0800093275,-0.4219939683,-0.9532790899,9.5627799071
1520429893672393617,0.0260927150,-0.1622007749,0.0822869123,-0.4015503172,-0.9748652097,9.5486562418
1520429893677409617,0.0173084802,-0.1519970212,0.0791345049,-0.4063605880,-0.9832588180,9.5754405584
1520429893682425617,0.0105460208,-0.1371470813,0.0822364886,-0.3738912598,-0.9760665043,9.5425774751
1520429893687441617,0.0072955038,-0.1246166413,0.0815265110,-0.3390167961,-1.0432210842,9.5144120565
1520429893692457617,0.0017877783,-0.1112238602,0.0848855916,-0.2752807073,-1.0468234694,9.4986873252
1520429893697472617,-0.0039800944,-0.1062900701,0.0914272202,-0.2921166553,-1.0360298944,9.4802463686
1520429893702488617,-0.0039721399,-0.1036821780,0.0968581459,-0.2861038167,-1.0504200477,9.4279053975
1520429893707504617,-0.0024504570,-0.0981664057,0.1047434151,-0.2993320616,-1.0540164387,9.4814962830
1520429893712519617,-0.0004269643,-0.0917697271,0.1101995071,-0.2993320616,-1.0228387877,9.4837901681
1520429893717536617,-0.0001666094,-0.0877019002,0.1145588979,-0.2897115199,-0.9820687626,9.4755217624
1520429893722552617,0.0013476876,-0.0856740011,0.1191709394,-0.2776858428,-0.9904636822,9.5439793905
1520429893727569617,0.0053766076,-0.0798454637,0.1194784795,-0.2668627333,-1.0156464740,9.5776007758
1520429893732584617,0.0104090058,-0.0757670249,0.1205824518,-0.2464190822,-1.0384317343,9.5402354008
1520429893737599617,0.0159395599,-0.0743079362,0.1205832993,-0.2367985405,-1.0384324836,9.6296268448
1520429893742614617,0.0212207988,-0.0699285449,0.1181719313,-0.2223677280,-1.0456284500,9.6562227111
1520429893747630617,0.0282621450,-0.0635029452,0.1136084907,-0.1790752903,-1.0816060345,9.6569985532
1520429893752646617,0.0353048515,-0.0573745575,0.1112071942,-0.1514162329,-1.0995952950,9.6776654682
1520429893757662617,0.0418419260,-0.0529924886,0.1079818549,-0.1874932643,-1.1187787320,9.7082510721
1520429893762677617,0.0491327676,-0.0477316001,0.1031385093,-0.1706573163,-1.1103860603,9.7371326148
1520429893767694617,0.0596899255,-0.0415894507,0.0961313985,-0.2043292123,-1.0840023485,9.7327860551
1520429893772710617,0.0659816014,-0.0310803924,0.0899772058,-0.1766701549,-1.0516277112,9.7719981611
1520429893777726617,0.0775487925,-0.0220269176,0.0840726425,-0.1959112383,-1.0156520000,9.8360682793
1520429893782742617,0.0901192461,-0.0132593345,0.0762701679,-0.1790752903,-0.9628911326,9.8730415641
1520429893787758617,0.1029461891,-0.0009964955,0.0690349954,-0.1478085298,-0.9485038826,9.8669124808
1520429893792774617,0.1147736528,0.0141739675,0.0639882878,-0.0852750087,-0.9197293828,9.9487879745
1520429893797788617,0.1281094819,0.0299285188,0.0586726802,-0.0071081073,-0.9137397686,10.0061284968
1520429893802805617,0.1424502357,0.0430500766,0.0573933863,0.0085252729,-0.9089444245,10.0350252526
1520429893807821617,0.1610585337,0.0512124869,0.0587738247,0.0698562263,-0.9017543586,10.1122849236
1520429893812836617,0.1789085796,0.0561693721,0.0601312093,0.1179589348,-0.8513942072,10.1838205343
1520429893817852617,0.1987614890,0.0541272603,0.0638664191,0.1576436693,-0.8214187874,10.2508093833
1520429893822868617,0.2188664420,0.0514973790,0.0694905373,0.1768847527,-0.7494718605,10.3714149132
1520429893827884617,0.2417275865,0.0427487771,0.0753333826,0.2009361070,-0.6679321850,10.5152071474
1520429893832900617,0.2655873714,0.0293391451,0.0808682458,0.2754953052,-0.5827990218,10.6550178292
1520429893837916617,0.2919611953,0.0147562184,0.0896361001,0.3765109931,-0.4640919873,10.8142947056
1520429893842932617,0.3155656276,-0.0039086317,0.0989190570,0.4751215456,-0.3729649953,11.0026754857
1520429893847946617,0.3391734472,-0.0202431339,0.1084903445,0.5196165509,-0.2626475417,11.1869157082
1520429893852963617,0.3607786189,-0.0310428462,0.1183781503,0.6170245357,-0.1403428050,11.2823062742
1520429893857978617,0.3811293626,-0.0409718109,0.1293571426,0.6783554890,-0.0624034541,11.3862262651
1520429893862994617,0.3979682581,-0.0462400015,0.1403782383,0.7444967133,0.0383191901,11.4319700207
1520429893868010617,0.4112934980,-0.0494757063,0.1535857969,0.7505095518,0.0766912154,11.4702248271
1520429893873027617,0.4178419377,-0.0477656314,0.1687375708,0.7625352289,0.0623005937,11.4410682097
1520429893878042617,0.4173565192,-0.0437250518,0.1831085599,0.6927863016,0.0551111834,11.3627283301
1520429893883058617,0.4070660556,-0.0396737433,0.1920868333,0.6013911554,0.0083518251,11.2962591693
1520429893888074617,0.3897358414,-0.0364920609,0.1983660468,0.5316422281,-0.0887731169,11.1924398232
1520429893893089617,0.3673847198,-0.0260117089,0.1987581621,0.4282214047,-0.1727048918,11.0459360296
1520429893898105617,0.3430222862,-0.0152363894,0.1975329590,0.3344211231,-0.2590356968,10.9679074275
1520429893903122617,0.3108697693,-0.0027085306,0.1936301038,0.3272057169,-0.3273861390,10.8274248917
1520429893908138617,0.2812300291,0.0127479983,0.1846044402,0.2971415240,-0.4245141718,10.7255435667
1520429893913152617,0.2465710867,0.0328632536,0.1761647722,0.3031543626,-0.5456278229,10.6640095151
1520429893918169617,0.2154301515,0.0526877743,0.1679868929,0.3007492272,-0.6355631673,10.6629584817
1520429893923185617,0.1837949299,0.0771676947,0.1622804295,0.2766978729,-0.6979165961,10.5784168798
1520429893928200617,0.1541710202,0.1013526476,0.1581912846,0.3007492272,-0.7566763501,10.5782400763
1520429893933218617,0.1207731432,0.1232094181,0.1524680805,0.3223954460,-0.8286264613,10.5304516435
1520429893938231617,0.0898860903,0.1403911804,0.1518450118,0.3933469411,-0.8634070596,10.4507691671
1520429893943248617,0.0622660830,0.1520124216,0.1606427434,0.4510701913,-0.9173728743,10.3398562690
1520429893948263617,0.0323794150,0.1601368908,0.1691474527,0.4546778944,-0.9089791723,10.2782193389
1520429893953279617,0.0062591481,0.1653460778,0.1787051138,0.4438547850,-0.9389568400,10.1551666587
1520429893958296617,-0.0206208725,0.1641350403,0.1917323638,0.4438547850,-0.9569439463,10.0471048111
1520429893963311617,-0.0447435137,0.1576794359,0.2049850103,0.4546778944,-0.9305636999,10.0028122699
1520429893968328617,-0.0693742881,0.1500712081,0.2133598717,0.4703112747,-0.9341623388,9.9201513914
1520429893973343617,-0.0932529734,0.1398349876,0.2238776924,0.5124011447,-0.9485553020,9.8825671400
1520429893978359617,-0.1161269456,0.1298934591,0.2333136856,0.5364524989,-0.9281717880,9.7788823481
1520429893983374617,-0.1359869157,0.1187875740,0.2427351859,0.6134168325,-0.9041949737,9.7374347993
1520429893988391617,-0.1538377183,0.1100281214,0.2467598191,0.6314553482,-0.8946032552,9.6291704810
1520429893993406617,-0.1737015460,0.1012766223,0.2475416354,0.6663298119,-0.9161904990,9.6776621286
1520429893998422617,-0.1794801920,0.1003921915,0.2505217056,0.7228504944,-0.9233897436,9.5876339225
1520429894003438617,-0.1877752527,0.0989327482,0.2502554462,0.7601300935,-0.8922149960,9.5535384883
1520429894008454617,-0.1897874781,0.1024504279,0.2421694801,0.7841814478,-0.8610392182,9.5335175371
1520429894013468617,-0.1840002463,0.1120873209,0.2351979140,0.8394995626,-0.8574461053,9.4934627020
1520429894018485617,-0.1787180272,0.1217320299,0.2252512765,0.8479175366,-0.7831000547,9.5200375785
1520429894023501617,-0.1701642972,0.1372166357,0.2112848448,0.8707663231,-0.7507250428,9.4965407312
1520429894028516617,-0.1555829120,0.1512517809,0.1954022751,0.9801999850,-0.7159584935,9.5186845393
1520429894033533617,-0.1399924619,0.1673233694,0.1808861296,1.0090616101,-0.6907787925,9.4881633191
1520429894038549617,-0.1171181761,0.1796054437,0.1679508243,1.0487463446,-0.6572059514,9.5400407886
1520429894043565617,-0.0927424327,0.1872259563,0.1549771494,1.0824182406,-0.6320266250,9.5699042337
1520429894048580617,-0.0703770799,0.1948456812,0.1420072082,1.1064695949,-0.6080456897,9.6405375270
1520429894053596617,-0.0447508249,0.1983887596,0.1284589847,1.0752028343,-0.5780647440,9.6547583525
1520429894058612617,-0.0136005237,0.1999001397,0.1127205645,1.0703925635,-0.5696703864,9.6664184269
1520429894063627617,0.0140311038,0.1987774827,0.1007563132,1.0824182406,-0.5444893741,9.7383297453
1520429894068644617,0.0406562619,0.1973659610,0.0877095221,1.0884310792,-0.5588795275,9.7487445477
1520429894073658617,0.0695452617,0.1962408825,0.0768251207,1.0607720218,-0.5840593222,9.7304440169
1520429894078675617,0.0926525420,0.1942415713,0.0651331470,1.0463412092,-0.6068418663,9.8154432036
1520429894083691617,0.1134974702,0.1907800807,0.0550575338,0.9910230944,-0.6308203664,9.8276264626
1520429894088707617,0.1335799750,0.1841269052,0.0398184948,0.9381101150,-0.6883749857,9.8281976133
1520429894093723617,0.1491439779,0.1786265691,0.0286549376,0.9369075473,-0.7207516835,9.8503216257
1520429894098739617,0.1604323881,0.1731362141,0.0131705804,0.8839945680,-0.7902977070,9.8404451743
1520429894103755617,0.1649342362,0.1673554585,-0.0036561279,0.8779817294,-0.8442585578,9.8300970242
1520429894108771617,0.1669211083,0.1571898387,-0.0156416890,0.8334867240,-0.9413854666,9.8027333729
1520429894113785617,0.1653974965,0.1528512594,-0.0278468003,0.7577249581,-0.9977391660,9.7651749999
1520429894118802617,0.1601076993,0.1499637554,-0.0384105199,0.6903811662,-1.0492969592,9.6845306878
1520429894123818617,0.1500410682,0.1453253451,-0.0487081644,0.6218348065,-1.1104477822,9.6062317235
1520429894128834617,0.1369569144,0.1389359893,-0.0584724549,0.5508833115,-1.1715984178,9.5941983746
1520429894133850617,0.1216134469,0.1342940546,-0.0682192064,0.4967677644,-1.1955770116,9.5145605561
1520429894138865617,0.1047613945,0.1290687601,-0.0779676037,0.3981572119,-1.2315435442,9.5143933069
1520429894143881617,0.0843935304,0.1241269159,-0.0852723308,0.3392313940,-1.2711105888,9.4429525177
1520429894148897617,0.0607618590,0.1206370722,-0.0912071455,0.3079646335,-1.2854978387,9.4374601615
1520429894153912617,0.0403950063,0.1162772686,-0.0982368805,0.2177720550,-1.2806942526,9.4127661964
1520429894158929617,0.0190265220,0.1145395320,-0.1052447408,0.1624539402,-1.2818890846,9.3668200402
1520429894163943617,-0.0013331250,0.1119120100,-0.1063091276,0.0782742003,-1.2890773710,9.3188363641
1520429894168960617,-0.0201884956,0.1078332552,-0.1092812514,0.0361843303,-1.3118577609,9.2727825003
1520429894173976617,-0.0385404727,0.1058009449,-0.1146736601,-0.0119183782,-1.2674858188,9.2685588612
1520429894178991617,-0.0573928089,0.1034683120,-0.1168208077,-0.0083106751,-1.2806766445,9.2813201923
1520429894184008617,-0.0739846475,0.0987989330,-0.1165550275,-0.0299568939,-1.2926663628,9.2827047206
1520429894189024617,-0.0870522336,0.0976231762,-0.1146458289,0.0025124344,-1.2494998364,9.2393472616
1520429894194039617,-0.0993711140,0.0929525573,-0.1133057994,0.0049175698,-1.2447034620,9.2497784697
1520429894199055617,-0.1086670654,0.0920638344,-0.1092370114,-0.0239440553,-1.2111252823,9.2651345210
1520429894204071617,-0.1162029135,0.0917578413,-0.1048964985,-0.0335645970,-1.2015314097,9.2187330485
1520429894209087617,-0.1214783072,0.0894079436,-0.0986819264,0.0217535178,-1.1631632245,9.2228057729
1520429894214101617,-0.1254960188,0.0879326918,-0.0924630186,0.0361843303,-1.1547703654,9.2017385357
1520429894219119617,-0.1242370274,0.0858760100,-0.0859878123,0.0397920335,-1.1451775230,9.1947212021
1520429894224134617,-0.1252325550,0.0887705223,-0.0789295213,0.0662485231,-1.1463787240,9.2025998678
1520429894229150617,-0.1244696533,0.0902044305,-0.0702623374,0.0975152837,-1.1068095252,9.2127162438
1520429894234165617,-0.1199395549,0.0907693041,-0.0629615530,0.1359974505,-1.1224013478,9.2239783229
1520429894239182617,-0.1159068674,0.0933656597,-0.0526682688,0.1804924559,-1.1152099707,9.2119167802
1520429894244198617,-0.1128817470,0.0956767929,-0.0448102538,0.1973284039,-1.0768387884,9.2140397785
1520429894249213617,-0.1060890417,0.0944833190,-0.0334688200,0.2478362478,-1.0888341263,9.2519106100
1520429894254229617,-0.0990476760,0.0918352062,-0.0229506061,0.2562542218,-1.0972287649,9.2611340116
1520429894259244617,-0.0915061786,0.0865611874,-0.0111006039,0.2658747635,-1.0660518632,9.2784421277
1520429894264259617,-0.0814497562,0.0830379172,0.0002169777,0.2706850343,-1.0420694293,9.3271819667
1520429894269277617,-0.0683855691,0.0774928907,0.0052908415,0.2490388155,-1.0180849350,9.3843143247
1520429894274291617,-0.0583311226,0.0739761764,0.0141735101,0.2021386747,-1.0240769844,9.4161545554
1520429894279307617,-0.0480324104,0.0675559132,0.0192458386,0.1997335393,-0.9976957077,9.4696108619
1520429894284325617,-0.0387413517,0.0614361104,0.0208051604,0.1552385339,-0.9809042764,9.5409183595
1520429894289340617,-0.0281891335,0.0593990970,0.0213110883,0.1600488048,-0.9461295787,9.5280540449
1520429894294355617,-0.0193993042,0.0559088424,0.0201858923,0.1335923151,-0.9245429906,9.6119648728
1520429894299372617,-0.0136252765,0.0538816132,0.0163719536,0.1167563671,-0.9269399602,9.6214282339
1520429894304387617,-0.0065937902,0.0512662798,0.0147156022,0.0794767680,-0.9125473717,9.6287499223
1520429894309403617,0.0006869368,0.0507067620,0.0071223359,0.0470074397,-0.8693757876,9.6615638933
1520429894314418617,-0.0000701156,0.0527658260,-0.0001654415,-0.0131209459,-0.8621762621,9.7214114717
1520429894319435617,-0.0008265446,0.0580425031,-0.0120280452,-0.0720467638,-0.8561759706,9.7533570596
1520429894324451617,-0.0025969193,0.0586646466,-0.0269003562,-0.0900852795,-0.8154037913,9.7651143174
1520429894329466617,-0.0058713940,0.0610301361,-0.0401332530,-0.0780596024,-0.8166038683,9.8091599065
1520429894334482617,-0.0091488951,0.0645764606,-0.0590387213,-0.1069212275,-0.7782291270,9.8744834704
1520429894339499617,-0.0136784094,0.0689855201,-0.0738769983,-0.1369854203,-0.7794259259,9.9270737441
1520429894344513617,-0.0187113996,0.0733972963,-0.0897965254,-0.1706573163,-0.7434490907,9.9262042615
1520429894349530617,-0.0242493161,0.0772312056,-0.1076133865,-0.1598342069,-0.7326576698,9.9725741501
1520429894354546617,-0.0297867033,0.0819414537,-0.1262352161,-0.1923035351,-0.7230620176,10.0391230373
1520429894359562617,-0.0385939235,0.0843186173,-0.1445982170,-0.2199625925,-0.6906830720,9.9998477870
1520429894364577617,-0.0416130887,0.0922321661,-0.1621180762,-0.2319882697,-0.6918812758,10.0952618112
1520429894369593617,-0.0484084206,0.0963613382,-0.1815536560,-0.2043292123,-0.7038748342,10.0973285762
1520429894374609617,-0.0552078847,0.0987480306,-0.2031669415,-0.2235702957,-0.7206613016,10.0952079399
1520429894379625617,-0.0592437712,0.0985038757,-0.2212882720,-0.2428113791,-0.6786898882,10.1406779082
1520429894384639617,-0.0630276572,0.0979647925,-0.2380595629,-0.2500267854,-0.6666979220,10.2127893703
1520429894389656617,-0.0653077529,0.0948052962,-0.2553947537,-0.2211651602,-0.6451156423,10.1927309536
1520429894394670617,-0.0673347425,0.0942741866,-0.2748747706,-0.2452165145,-0.6391180669,10.1685541850
1520429894399688617,-0.0686065693,0.0911048860,-0.2884241857,-0.2295831342,-0.6571063909,10.1753924231
1520429894404703617,-0.0696263524,0.0873478159,-0.3000846924,-0.1850881289,-0.6235339244,10.1667915868
1520429894409720617,-0.0701467958,0.0803820707,-0.3104178571,-0.1718598840,-0.6163401122,10.1561965196
1520429894414735617,-0.0719189896,0.0739854905,-0.3158744158,-0.1886958320,-0.6355250477,10.1784598349
1520429894419751617,-0.0746988407,0.0664258922,-0.3224201835,-0.1706573163,-0.6870894908,10.1516052297
1520429894424766617,-0.0749623281,0.0568071906,-0.3214108951,-0.1634419100,-0.6894883336,10.1526994820
1520429894429783617,-0.0774882538,0.0463119925,-0.3198629835,-0.1550239360,-0.6762984446,10.1421453883
1520429894434799617,-0.0825246587,0.0381490713,-0.3191042578,-0.1538213683,-0.6691036957,10.1305052276
1520429894439815617,-0.0857980200,0.0299737276,-0.3134789729,-0.1646444777,-0.6762976953,10.0992397024
1520429894444830617,-0.0895726617,0.0217938163,-0.3062294793,-0.0864775764,-0.6607149577,10.0996258163
1520429894449847617,-0.0968575287,0.0176838973,-0.2959663235,-0.0636287899,-0.6475261926,10.0389590719
1520429894454862617,-0.1021279552,0.0173664070,-0.2870307308,-0.1129340661,-0.6403275100,10.0371076753
1520429894459878617,-0.1083993547,0.0196687983,-0.2772616258,-0.1442008266,-0.6307319514,10.0153219169
1520429894464893617,-0.1146659635,0.0237114841,-0.2645031774,-0.1309725818,-0.6295338413,9.9954355447
1520429894469910617,-0.1234428280,0.0315491968,-0.2546871665,-0.1273648786,-0.6187418584,9.9686605945
1520429894474926617,-0.1337278383,0.0388020930,-0.2443317097,-0.1502136652,-0.6007529725,9.9258661242
1520429894479942617,-0.1452704406,0.0460581390,-0.2353266487,-0.1826829934,-0.5971530224,9.8506392957
1520429894484957617,-0.1573189296,0.0547883930,-0.2328026404,-0.2235702957,-0.5467859402,9.8451774356
1520429894489972617,-0.1691269794,0.0582862074,-0.2349183945,-0.2355959728,-0.4856288420,9.7476147577
1520429894494988617,-0.1791809045,0.0597523036,-0.2397584363,-0.2488242176,-0.4508527395,9.6988995564
1520429894500004617,-0.1874771374,0.0632726208,-0.2497265556,-0.2632550302,-0.4004877178,9.6548294346
1520429894505021617,-0.1889877726,0.0676719352,-0.2605122448,-0.1814804257,-0.3405370655,9.6074892656
1520429894510037617,-0.1819562235,0.0720811530,-0.2737487156,-0.0780596024,-0.2422156055,9.6238189042
1520429894515051617,-0.1724053938,0.0814463492,-0.2874931531,0.0181458146,-0.2014523239,9.6518963410
1520429894520068617,-0.1525523668,0.0905263828,-0.3020705870,0.0758690649,-0.1618851856,9.7059166760
1520429894525084617,-0.1246498109,0.1066078947,-0.3185034232,0.1275794765,-0.1103261748,9.8215774724
1520429894530099617,-0.0922230921,0.1203469908,-0.3300926190,0.2141643518,-0.0395836333,9.8067199899
1520429894535116617,-0.0525013995,0.1410894550,-0.3443474547,0.2502413832,0.0503490886,9.9166848134
1520429894540131617,-0.0039806019,0.1624086647,-0.3550970829,0.3211928783,0.0563392648,10.0252299001
1520429894545146617,0.0478034658,0.1784725779,-0.3615640597,0.4161957276,0.0719206912,10.1451529704
1520429894550163617,0.0980818026,0.1939436617,-0.3645155857,0.4763241133,0.1210807655,10.2305184273
1520429894555178617,0.1478595529,0.2061881942,-0.3596448012,0.5003754675,0.1390659987,10.2755904003
1520429894560195617,0.1976333358,0.2125919245,-0.3499486523,0.5508833115,0.1738371372,10.4121978637
1520429894565209617,0.2378505417,0.2114057177,-0.3365049256,0.4871472227,0.2349982628,10.5580265897
1520429894570225617,0.2692606214,0.1985468437,-0.3179934149,0.5075908738,0.2661743216,10.6263636942
1520429894575241617,0.2931285685,0.1833539399,-0.2994856872,0.4727164101,0.2673761782,10.6778363055
1520429894580257617,0.3102070838,0.1620261908,-0.2761422167,0.4246137016,0.2793713288,10.6852656780
1520429894585274617,0.3154718295,0.1398247598,-0.2546773007,0.3945495088,0.2793736703,10.7332062066
1520429894590289617,0.3144602163,0.1208202698,-0.2310118955,0.3536622065,0.3117536462,10.6998704317
1520429894595304617,0.3044003085,0.1018173344,-0.2092235096,0.3199903106,0.3357390771,10.6711211876
1520429894600321617,0.2885661613,0.0877693136,-0.1887393260,0.2466336801,0.3357447904,10.6427815972
1520429894605336617,0.2651869412,0.0719824154,-0.1728537595,0.2189746227,0.3165606978,10.6244752197
1520429894610353617,0.2370362190,0.0614516797,-0.1617891358,0.1925181330,0.3069696349,10.5887156230
1520429894615368617,0.2036119182,0.0541262915,-0.1515018947,0.1456179922,0.3765234322,10.5751585711
1520429894620384617,0.1669155931,0.0459385816,-0.1460850816,0.1384025859,0.3921128197,10.4973499551
1520429894625401617,0.1267038561,0.0397891851,-0.1406461727,0.1684667787,0.4352795334,10.4667994897
1520429894630415617,0.0864949810,0.0365572759,-0.1365377625,0.1432128568,0.4604634492,10.4216971255
1520429894635432617,0.0487958010,0.0333372778,-0.1364922080,0.1816950236,0.4952355243,10.4154779331
1520429894640447617,0.0131087210,0.0289416027,-0.1324010911,0.2406208415,0.5228111647,10.4160396345
1520429894645462617,-0.0233348508,0.0227980535,-0.1285924585,0.2646721958,0.5719740489,10.4727026442
1520429894650479617,-0.0580172687,0.0160629549,-0.1212744424,0.3139774720,0.5875590343,10.4512889443
1520429894655495617,-0.0849110578,0.0055312547,-0.1096710606,0.3789161285,0.6235281894,10.4018117450
1520429894660511617,-0.1100508555,-0.0076171181,-0.0999847748,0.3813212639,0.6127357383,10.3797181238
1520429894665525617,-0.1304145719,-0.0213536737,-0.0876063441,0.4029674828,0.6151323332,10.3132628887
1520429894670542617,-0.1449945066,-0.0348082351,-0.0709076905,0.4053726182,0.6091364438,10.2516516957
1520429894675558617,-0.1565588985,-0.0479687736,-0.0547535063,0.4799318164,0.5587667391,10.2010029045
1520429894680574617,-0.1651075751,-0.0620066549,-0.0369883167,0.5063883061,0.5551672573,10.1066152409
1520429894685590617,-0.1711472701,-0.0801280339,-0.0173650962,0.5725295303,0.5767466336,10.0269246258
1520429894690606617,-0.1726629275,-0.0982498261,0.0030613609,0.6254425097,0.5635519679,9.9322888058
1520429894695620617,-0.1711607095,-0.1140364469,0.0224178185,0.6374681868,0.5539579079,9.8450203134
1520429894700637617,-0.1673915643,-0.1251563870,0.0404529154,0.6615195411,0.5215792433,9.7646298516
1520429894705653617,-0.1588480942,-0.1368586823,0.0590157902,0.7216479267,0.4820029263,9.7059759892
1520429894710669617,-0.1518103471,-0.1462268501,0.0762465206,0.7312684684,0.4220451559,9.6489957620
1520429894715683617,-0.1445145658,-0.1491779038,0.0910907790,0.7360787393,0.4172482195,9.5780628379
1520429894720701617,-0.1342031085,-0.1512499804,0.1045833766,0.7577249581,0.3980602869,9.5267365223
1520429894725717617,-0.1228919052,-0.1550597723,0.1142731262,0.8226636146,0.3464921911,9.4622368134
1520429894730733617,-0.1113284347,-0.1579945837,0.1236985324,0.8130430729,0.2865359192,9.4205517385
1520429894735747617,-0.1017675650,-0.1542239680,0.1315555280,0.8250687500,0.2877341230,9.3890556318
1520429894740764617,-0.0942230214,-0.1533614294,0.1369591135,0.8431072657,0.2601524883,9.3459076244
1520429894745779617,-0.0869238842,-0.1492988584,0.1442814409,0.8190559115,0.2277775701,9.3949833438
1520429894750796617,-0.0801204840,-0.1411614716,0.1532591003,0.8094353698,0.2529602683,9.3799445567
1520429894755811617,-0.0758391714,-0.1367999564,0.1573427008,0.8322841563,0.2289756803,9.3832319793
1520429894760827617,-0.0702976715,-0.1306940124,0.1630605814,0.8683611877,0.1882020961,9.4026770324
1520429894765842617,-0.0690263151,-0.1228399780,0.1682586432,0.8491201043,0.2097881223,9.3935461135
1520429894770858617,-0.0705228565,-0.1187801246,0.1753267600,0.8250687500,0.2265779614,9.3403052220
1520429894775875617,-0.0720225225,-0.1173441888,0.1829159608,0.9104510576,0.1762074137,9.3592797225
1520429894780891617,-0.0775420014,-0.1150349462,0.1902487526,0.8984253805,0.1222470313,9.3617736812
1520429894785907617,-0.0843192957,-0.1141853038,0.1983844003,0.8635509168,0.0934703773,9.3493576085
1520429894790922617,-0.0933601651,-0.1124521960,0.2027432752,0.8431072657,0.0718874419,9.3228483316
1520429894795936617,-0.1018920191,-0.1081059001,0.2106383210,0.8515252397,0.0527005395,9.3402172650
1520429894800955617,-0.1106740704,-0.1022998662,0.2174627654,0.8431072657,0.0011381569,9.3217551787
1520429894805969617,-0.1199623260,-0.0988236487,0.2237292668,0.8118405052,-0.0240413568,9.2953547553
1520429894810985617,-0.1312580634,-0.0912600942,0.2267840744,0.8262713177,-0.0576184126,9.2487612780
1520429894816000617,-0.1415501461,-0.0851545254,0.2303669915,0.7661429321,-0.0660077126,9.3039754820
1520429894821016617,-0.1498354411,-0.0799143098,0.2309635007,0.7817763124,-0.0863943174,9.2945460434
1520429894826032617,-0.1576121598,-0.0720594493,0.2345550891,0.7625352289,-0.1007825039,9.2412887345
1520429894831048617,-0.1648916910,-0.0676988209,0.2373074293,0.7432941455,-0.1079758479,9.2414830314
1520429894836064617,-0.1716742071,-0.0656610591,0.2370650465,0.7649403644,-0.1055792529,9.2389457138
1520429894841080617,-0.1771973281,-0.0624616375,0.2384524979,0.7625352289,-0.1067782060,9.2401324372
1520429894846095617,-0.1784486355,-0.0604304508,0.2414463979,0.7709532029,-0.0935883170,9.2284161996
1520429894851113617,-0.1774433109,-0.0613085812,0.2430611372,0.7180402236,-0.0528134215,9.1568385394
1520429894856128617,-0.1734224904,-0.0630633258,0.2460163359,0.7432941455,-0.0108454736,9.2355775952
1520429894861144617,-0.1683975332,-0.0665703543,0.2505796047,0.7228504944,-0.0252335664,9.2985463868
1520429894866158617,-0.1591065215,-0.0738607942,0.2540238554,0.7769660415,0.0155329933,9.2968177577
1520429894871176617,-0.1483109747,-0.0843595154,0.2587935814,0.8106379375,0.0395131793,9.3046016370
1520429894876192617,-0.1329886696,-0.0954530736,0.2686908322,0.8190559115,0.0275211194,9.3266121302
1520429894881207617,-0.1164162058,-0.1112082920,0.2785501800,0.8274738854,0.0778843616,9.3729668407
1520429894886222617,-0.1018574767,-0.1295874871,0.2886637997,0.8346892917,0.0790829400,9.4519212299
1520429894891238617,-0.0820117535,-0.1424355930,0.3015153158,0.7853840155,0.0431125674,9.5384348700
1520429894896253617,-0.0629322369,-0.1610971162,0.3089128525,0.7781686092,0.0491088315,9.5268778141
1520429894901271617,-0.0423338443,-0.1730627604,0.3187936328,0.7072171142,0.0694997446,9.5589264204
1520429894906286617,-0.0209834488,-0.1870707147,0.3297396350,0.6903811662,0.0215354389,9.5707585043
1520429894911301617,-0.0003892275,-0.1990225187,0.3344800433,0.6651272442,0.0059485803,9.5768302317
1520429894916317617,0.0197086845,-0.2074830044,0.3411418834,0.6170245357,0.0455239606,9.6109620204
1520429894921334617,0.0393059355,-0.2141939229,0.3472769036,0.6398733222,0.0515178832,9.6386252326
1520429894926350617,0.0568950893,-0.2171081606,0.3499274611,0.6531015671,0.0455211508,9.6675559225
1520429894931366617,0.0709594615,-0.2243923593,0.3517395687,0.6831657599,0.0287308434,9.6393882119
1520429894936382617,0.0845281438,-0.2264311049,0.3533220794,0.6603169733,0.0167412187,9.6640273244
1520429894941398617,0.0983544642,-0.2223441212,0.3525158951,0.6639246765,0.0047495335,9.7360568278
1520429894946412617,0.1058983100,-0.2197230774,0.3541451766,0.6795580568,-0.0252301947,9.7498796230
1520429894951429617,0.1139413231,-0.2191393430,0.3549463253,0.6939888693,-0.0600063909,9.7369894897
1520429894956445617,0.1214911945,-0.2127332141,0.3576866904,0.6879760307,-0.0660016247,9.7265945661
1520429894961460617,0.1260278127,-0.2042871180,0.3599071261,0.6963940047,-0.0588074378,9.7079113114
1520429894966475617,0.1310735403,-0.1908865597,0.3618938748,0.6458861608,-0.1067691210,9.7119361292
1520429894971492617,0.1356178151,-0.1763192033,0.3633493575,0.6049988586,-0.1307487450,9.7541946702
1520429894976507617,0.1368976710,-0.1591270239,0.3634781859,0.5568961500,-0.1535286667,9.7558472339
1520429894981523617,0.1361623024,-0.1433830852,0.3600825361,0.5568961500,-0.1931003006,9.7663451177
1520429894986540617,0.1336732012,-0.1267795223,0.3618371945,0.5496807438,-0.2530567598,9.7385823601
1520429894991555617,0.1316833143,-0.1110426317,0.3608787913,0.5232242541,-0.2866306312,9.7783855073
1520429894996570617,0.1264242100,-0.0973481696,0.3604519858,0.5075908738,-0.3130105029,9.7866984061
1520429895001587617,0.1204055364,-0.0868548621,0.3583788510,0.4907549258,-0.3381911406,9.7148339079
1520429895006603617,0.1146349038,-0.0795703281,0.3576335251,0.4763241133,-0.3597745443,9.7161575606
1520429895011619617,0.1091138528,-0.0740361881,0.3576860316,0.5051857384,-0.3633742134,9.6914751242
1520429895016634617,0.1010831577,-0.0658798435,0.3574926673,0.4294239725,-0.3645674532,9.6224850749
1520429895021651617,0.0963144193,-0.0615109463,0.3575348813,0.4161957276,-0.3549732996,9.6342259153
1520429895026666617,0.0915488056,-0.0545181314,0.3570560113,0.4149931599,-0.3681637506,9.5877647250
1520429895031682617,0.0875388486,-0.0460673701,0.3563163106,0.4546778944,-0.4041410541,9.5839271064
1520429895036697617,0.0822725699,-0.0387884667,0.3577344184,0.4258162693,-0.4281216147,9.5819071266
1520429895041714617,0.0777510807,-0.0382111120,0.3590999951,0.4149931599,-0.4257224909,9.5366865193
1520429895046728617,0.0764941866,-0.0399664673,0.3615239033,0.4763241133,-0.4533074973,9.6139801011
1520429895051745617,0.0747371099,-0.0417300322,0.3669247498,0.4859446550,-0.4533082466,9.5859950058
1520429895056761617,0.0717128951,-0.0501908346,0.3703829776,0.4667035716,-0.4173325353,9.5501207439
1520429895061777617,0.0699431476,-0.0612787045,0.3757126853,0.5244268218,-0.4233327331,9.5228354369
1520429895066792617,0.0716943593,-0.0688620257,0.3786276229,0.5172114155,-0.3945528010,9.5007968680
1520429895071808617,0.0757078290,-0.0773244419,0.3836960579,0.5280345249,-0.3957527844,9.4786119567
1520429895076824617,0.0769554708,-0.0872463206,0.3892996032,0.5268319572,-0.3597784780,9.4565078465
1520429895081840617,0.0794558706,-0.0986188022,0.3927253323,0.4787292487,-0.3465841869,9.4825303530
1520429895086856617,0.0812036128,-0.1064833100,0.3918504042,0.4775266810,-0.3357918295,9.4406943516
1520429895091871617,0.0854648687,-0.1149339728,0.3925896381,0.5124011447,-0.3393919669,9.4612770042
1520429895096886617,0.0940005803,-0.1216346548,0.3933342763,0.5160088478,-0.3501845117,9.4891438680
1520429895101903617,0.1007748245,-0.1300843330,0.3940688430,0.4943626290,-0.4005467236,9.5428622931
1520429895106920617,0.1082998405,-0.1411576336,0.3953230935,0.5208191186,-0.4125401883,9.5879400895
1520429895111935617,0.1168306673,-0.1519398842,0.3968482461,0.5244268218,-0.4437181203,9.6100161123
1520429895116950617,0.1283779583,-0.1627238670,0.3994499817,0.4859446550,-0.5012738635,9.6418246891
1520429895121967617,0.1399246377,-0.1723350275,0.3993551506,0.4751215456,-0.5216584078,9.6930842474
1520429895126983617,0.1517288219,-0.1764054129,0.3976788160,0.4137905922,-0.5504330013,9.7401950276
1520429895131998617,0.1612724184,-0.1790168480,0.3949356138,0.4558804621,-0.6187872835,9.7898241930
1520429895137014617,0.1730785393,-0.1813374694,0.3927315260,0.4703112747,-0.6307798117,9.8478026234
1520429895142031617,0.1861406683,-0.1848267787,0.3918689416,0.4751215456,-0.6823432245,9.8222389178
1520429895147045617,0.1951867714,-0.1833575705,0.3886167043,0.4883497904,-0.7962625950,9.8512748482
1520429895152061617,0.2009658565,-0.1824745966,0.3861777258,0.5304396603,-0.7758804859,9.9159253539
1520429895157077617,0.2042315573,-0.1818839917,0.3837411915,0.5893654783,-0.8370412368,9.8956549952
1520429895162094617,0.2029776977,-0.1818932251,0.3869900759,0.6086065617,-0.8742160885,9.8501803496
1520429895167109617,0.1982120761,-0.1778273673,0.3913588012,0.6302527805,-0.8802134765,9.9324877261
1520429895172124617,0.1929449153,-0.1720090287,0.3941185230,0.6506964316,-0.8586305411,9.9020519492
1520429895177141617,0.1819006062,-0.1653238999,0.3987894700,0.6254425097,-0.8502345913,9.9313431689
1520429895182157617,0.1718575798,-0.1603815855,0.4015513904,0.5593012855,-0.8202509294,9.9598491684
1520429895187173617,0.1545261856,-0.1551470996,0.4029763393,0.5556935823,-0.8070601038,9.9807900120
1520429895192188617,0.1394666034,-0.1411643643,0.4022994131,0.5256293895,-0.7890706559,9.9926865379
1520429895197203617,0.1208868146,-0.1283470886,0.4010790369,0.4642984361,-0.7746761942,9.9642158648
1520429895202220617,0.1013011720,-0.1155280215,0.3990488899,0.4354368110,-0.7626825421,10.0191058586
1520429895207236617,0.0804665624,-0.0957096622,0.3946395175,0.4210059985,-0.7578848565,10.0389980892
1520429895212251617,0.0616401440,-0.0773467093,0.3899447500,0.4137905922,-0.6811393074,10.0052913071
1520429895217267617,0.0443196330,-0.0580988142,0.3814662089,0.3656878837,-0.6871312631,9.9941439165
1520429895222283617,0.0244856083,-0.0382647639,0.3713735058,0.3704981545,-0.6811359357,9.9940912496
1520429895227299617,0.0056653528,-0.0140682931,0.3645588328,0.3692955868,-0.6547547527,10.0475358511
1520429895232315617,-0.0098987009,0.0051890324,0.3528304739,0.3717007222,-0.6895300123,10.1521393077
1520429895237331617,-0.0227018117,0.0218242518,0.3413475191,0.4149931599,-0.7003256479,10.1261612827
1520429895242347617,-0.0352554741,0.0361241228,0.3314695883,0.4017649151,-0.6619521241,10.1471712107
1520429895247361617,-0.0473139758,0.0443022019,0.3226262228,0.4787292487,-0.6607589779,10.1371237661
1520429895252378617,-0.0540958176,0.0521916925,0.3135002872,0.4859446550,-0.6247853271,10.1335320237
1520429895257395617,-0.0603807425,0.0539535638,0.3075732841,0.4426522173,-0.5456386874,10.1303897975
1520429895262409617,-0.0641511854,0.0560041619,0.3029965663,0.4715138424,-0.4976753183,10.1521428377
1520429895267426617,-0.0651676833,0.0493092083,0.3002418433,0.5316422281,-0.4545109461,10.1945148150
1520429895272441617,-0.0626743559,0.0367893994,0.2968950326,0.5653141240,-0.4065479516,10.1708974207
1520429895277458617,-0.0589207158,0.0236720166,0.2992229060,0.5809475043,-0.3921594841,10.1962983899
1520429895282473617,-0.0519065304,0.0044302828,0.3039329402,0.5941757491,-0.3885630931,10.1473560802
1520429895287490617,-0.0381032267,-0.0110171517,0.3073065436,0.6074039940,-0.4017546680,10.1205108764
1520429895292505617,-0.0245531115,-0.0270438116,0.3093234380,0.5953783168,-0.3837666251,10.0950432199
1520429895297520617,-0.0072314909,-0.0419049133,0.3118833157,0.5520858792,-0.3957546575,10.0850169997
1520429895302536617,0.0143613747,-0.0570542690,0.3138919442,0.5376550666,-0.3525844784,10.0723317807
1520429895307552617,0.0377083258,-0.0724790230,0.3102136188,0.5941757491,-0.3525888804,10.0438901881
1520429895312567617,0.0633167468,-0.0879021625,0.3062605469,0.6158219680,-0.3525905663,10.0808681036
1520429895317584617,0.0896870227,-0.0992536359,0.3053132030,0.6711400828,-0.3921665086,10.0501525164
1520429895322599617,0.1148035331,-0.1082730685,0.3038448855,0.6663298119,-0.4125515212,10.0060577451
1520429895327616617,0.1439458820,-0.1143807228,0.3037440608,0.6759503536,-0.4281410960,9.9722771314
1520429895332631617,0.1723340287,-0.1199022612,0.3022963530,0.7408890101,-0.4401375578,9.9960617748
1520429895337647617,0.1951930759,-0.1248388259,0.2992400839,0.7432941455,-0.4988956259,10.0425814205
1520429895342664617,0.2130304079,-0.1289134043,0.2999874610,0.7288633330,-0.5348687147,10.0357840976
1520429895347678617,0.2281077221,-0.1291981530,0.2996866887,0.7048119787,-0.5420616840,10.0348630708
1520429895352694617,0.2401700228,-0.1289005858,0.2991254172,0.7036094110,-0.6188065775,10.0163553103
1520429895357710617,0.2472075779,-0.1280236754,0.2991190182,0.7264581976,-0.6164100762,10.0149684316
1520429895362725617,0.2492269816,-0.1236623179,0.3029362733,0.7456992810,-0.6200089960,10.0066496511
1520429895367742617,0.2442139345,-0.1160970305,0.3062499587,0.7444967133,-0.6739702214,10.0473890148
1520429895372758617,0.2376933571,-0.1088259036,0.3103758591,0.7673454998,-0.6715737201,10.0181106812
1520429895377775617,0.2251427957,-0.1006829861,0.3145196301,0.7204453590,-0.6847606120,9.9953371620
1520429895382790617,0.2080782252,-0.0861335665,0.3195323477,0.6879760307,-0.7411176831,9.9852488619
1520429895387805617,0.1900124190,-0.0686706954,0.3245691630,0.6927863016,-0.7830879725,9.9852429686
1520429895392822617,0.1674199368,-0.0526621485,0.3279799885,0.6446835931,-0.8178592984,9.9369350356
1520429895397836617,0.1438220867,-0.0354826300,0.3292372061,0.6374681868,-0.8394432641,9.8812434042
1520429895402854617,0.1177164822,-0.0151017799,0.3316057285,0.6386707545,-0.8910063959,9.8359583665
1520429895407869617,0.0883461883,0.0052705060,0.3366857772,0.6819631922,-0.8790183635,9.8680653218
1520429895412883617,0.0577173812,0.0259416968,0.3387943778,0.6218348065,-0.9173861740,9.8466072584
1520429895417900617,0.0265840006,0.0466192466,0.3384689987,0.6134168325,-0.9329743439,9.8722715622
1520429895422916617,-0.0040506949,0.0655537852,0.3362355264,0.6134168325,-0.9401691864,9.8606571387
1520429895427933617,-0.0326731532,0.0853610797,0.3348166273,0.5496807438,-0.9593504692,9.8438640568
1520429895432948617,-0.0628069251,0.1022524813,0.3339193895,0.5520858792,-0.9509566736,9.8449946052
1520429895437963617,-0.0904278812,0.1203162331,0.3308620096,0.5051857384,-0.9113813869,9.8372775066
1520429895442980617,-0.1172967402,0.1386789491,0.3250999936,0.5111985769,-0.9149792764,9.8000338828
1520429895447994617,-0.1409026780,0.1526656212,0.3217334771,0.4931600612,-0.9761340331,9.7747019279
1520429895453012617,-0.1640123065,0.1631609748,0.3164455288,0.4931600612,-0.9905237182,9.7468245051
1520429895458027617,-0.1840999744,0.1765633425,0.3141502155,0.5316422281,-1.0037172600,9.7673813972
1520429895463042617,-0.2006812475,0.1821033485,0.3104356153,0.5737320980,-1.0133136615,9.7100360212
1520429895468059617,-0.2175144348,0.1873526000,0.3064487128,0.5857577751,-1.0313017044,9.7169093744
1520429895473074617,-0.2288224862,0.1876395540,0.3064719385,0.5929731814,-1.0073194579,9.7261129089
1520429895478090617,-0.2351113354,0.1832677816,0.3059091685,0.6134168325,-0.9701476970,9.6817162032
1520429895483106617,-0.2378787471,0.1806427809,0.3064353865,0.6903811662,-0.9773485338,9.7018926868
1520429895488122617,-0.2401456782,0.1745126217,0.3101805447,0.7072171142,-0.9929386705,9.6808254262
1520429895493137617,-0.2406497774,0.1712977254,0.3136741209,0.7084196819,-1.0073284493,9.6250448435
1520429895498152617,-0.2328686287,0.1616719764,0.3184561168,0.7336736038,-1.0181226800,9.6364310009
1520429895503169617,-0.2263423471,0.1529184318,0.3237882073,0.7420915778,-1.0049327909,9.6235526192
1520429895508185617,-0.2095052511,0.1479489100,0.3321060672,0.7300659007,-0.9593645182,9.6131659393
1520429895513200617,-0.2082690452,0.1307475171,0.3357602141,0.7180402236,-0.9425756157,9.5017007995
1520429895518217617,-0.2080451657,0.1068373304,0.3418000100,0.7264581976,-0.9185934629,9.4678933027
1520429895523232617,-0.1924714677,0.0980851449,0.3479269362,0.6903811662,-0.9030018275,9.4740399727
1520429895528248617,-0.1726166217,0.0977927972,0.3511343927,0.6218348065,-0.8610265741,9.4595583627
1520429895533265617,-0.1671044622,0.0840926061,0.3537250987,0.6350630514,-0.8406422172,9.4164104020
1520429895538280617,-0.1565590186,0.0773948971,0.3536543654,0.6037962908,-0.9065925053,9.3935361680
1520429895543296617,-0.1387150414,0.0788595385,0.3533617976,0.5833526397,-0.9065909131,9.3588708354
1520429895548311617,-0.1279171973,0.0736217644,0.3522195294,0.5701243949,-0.8981958999,9.3915314363
1520429895553327617,-0.1143507496,0.0733466229,0.3481339148,0.6025937231,-0.9293760797,9.3982186663
1520429895558344617,-0.0980224337,0.0716170987,0.3434909590,0.6278476451,-0.9077935189,9.3816817967
1520429895563358617,-0.0859666801,0.0701801990,0.3377759771,0.6386707545,-0.8862098342,9.3745825394
1520429895568375617,-0.0713967934,0.0699112788,0.3315241284,0.6735452182,-0.9149919205,9.4079733315
1520429895573391617,-0.0568316975,0.0679020642,0.3222829364,0.7012042756,-0.9461717257,9.4472474125
1520429895578407617,-0.0457825466,0.0655913455,0.3162926062,0.6831657599,-0.9749496910,9.4462889085
1520429895583422617,-0.0274386926,0.0676506077,0.3116748168,0.6783554890,-0.9797458780,9.5044476038
1520429895588438617,-0.0136192210,0.0720530142,0.3019428410,0.6314553482,-0.9869370679,9.5839369059
1520429895593454617,0.0012017057,0.0735412408,0.2924573134,0.5785423689,-0.9833355255,9.5588812534
1520429895598469617,0.0167800926,0.0776522235,0.2829903934,0.5737320980,-0.9977248360,9.5821849848
1520429895603486617,0.0295918166,0.0800138161,0.2735152688,0.5689218272,-0.9809364954,9.6612412232
1520429895608502617,0.0411399192,0.0771299948,0.2640024624,0.5099960092,-1.0061138550,9.6618393271
1520429895613516617,0.0509336383,0.0780349401,0.2539807313,0.4751215456,-1.0240982452,9.6401155786
1520429895618534617,0.0549429524,0.0754402782,0.2442136037,0.4510701913,-1.0648671464,9.6891994834
1520429895623549617,0.0584456270,0.0719807354,0.2309236436,0.4486650559,-1.1188282781,9.7264641203
1520429895628565617,0.0654697821,0.0699751230,0.2192615403,0.4498676236,-1.1140318101,9.7636363444
1520429895633580617,0.0636950440,0.0644650797,0.2092123705,0.4270188370,-1.1524025241,9.8103819175
1520429895638597617,0.0606648271,0.0610000633,0.1970167289,0.4210059985,-1.1332158090,9.8557453476
1520429895643613617,0.0568787771,0.0557849875,0.1853502407,0.4270188370,-1.1536016645,9.8835981560
1520429895648627617,0.0498255325,0.0496915645,0.1747653342,0.4558804621,-1.1691927379,9.8868188679
1520429895653644617,0.0430292165,0.0470919406,0.1652888216,0.5015780352,-1.1751919990,9.8794070587
1520429895658658617,0.0344738949,0.0439059446,0.1568933135,0.4691087070,-1.1607997851,9.9006276543
1520429895663675617,0.0236568016,0.0427682239,0.1450004708,0.5160088478,-1.2063707740,9.9071884558
1520429895668692617,0.0110813574,0.0395784674,0.1374240680,0.5220216864,-1.2291549103,9.9373678907
1520429895673707617,-0.0030021856,0.0369745314,0.1285021821,0.5136037124,-1.2231585526,9.9583625706
1520429895678723617,-0.0178408129,0.0334961464,0.1195750272,0.5797449366,-1.2459473719,9.9275252671
1520429895683739617,-0.0294088585,0.0332264564,0.1098546211,0.5605038532,-1.2951106307,9.9382197865
1520429895688756617,-0.0432378056,0.0320751709,0.1025666594,0.5448704729,-1.2951094131,9.9337233765
1520429895693772617,-0.0570638085,0.0317922115,0.0974497341,0.5605038532,-1.2975089116,9.9463571329
1520429895698786617,-0.0691346792,0.0285960960,0.0923073108,0.5532884469,-1.2915126475,9.9731508275
1520429895703803617,-0.0842272516,0.0207359182,0.0874054648,0.5424653375,-1.2783212599,9.9546490070
1520429895708818617,-0.0965511383,0.0157892118,0.0830618074,0.5148062801,-1.2747216845,9.9618875790
1520429895713833617,-0.1068704012,0.0053011596,0.0808365449,0.4895523581,-1.2363472240,9.9934738531
1520429895718850617,-0.1159318528,-0.0051907709,0.0802322240,0.4546778944,-1.2099634186,10.0530569159
1520429895723866617,-0.1272634815,-0.0206312970,0.0774299441,0.4462599204,-1.1799842524,10.0902982244
1520429895728881617,-0.1285421495,-0.0369493228,0.0773077849,0.4486650559,-1.1368153845,10.1134755971
1520429895733897617,-0.1293224892,-0.0570580643,0.0782379758,0.4450573527,-1.1104340142,10.1529978813
1520429895738913617,-0.1298483663,-0.0762991096,0.0816092823,0.4234111339,-1.0744581156,10.1578220679
1520429895743929617,-0.1248438658,-0.0943731792,0.0852497591,0.3187877429,-1.0672551246,10.1634819676
1520429895748944617,-0.1206001617,-0.1147662371,0.0842745711,0.2322028675,-1.0756423641,10.1480629017
1520429895753961617,-0.1178652149,-0.1345712892,0.0811422625,0.1672642110,-1.0312691108,10.1730567323
1520429895758976617,-0.1171421485,-0.1532013928,0.0742349375,0.0698562263,-1.0036812946,10.1739779470
1520429895763990617,-0.1161703747,-0.1721154982,0.0646194637,-0.0167286490,-0.9724969000,10.1678174445
1520429895769008617,-0.1129388873,-0.1910221616,0.0525648763,-0.0648313576,-0.9365189409,10.1182783766
1520429895774024617,-0.1114671111,-0.2116836488,0.0426645847,-0.0792621701,-0.9245264128,10.0800563934
1520429895779040617,-0.1104987167,-0.2300011449,0.0279131850,-0.1213520401,-0.8993411858,10.0804415142
1520429895784056617,-0.1117832143,-0.2424947503,0.0142926312,-0.1766701549,-0.9353110901,10.0077999579
1520429895789071617,-0.1092944972,-0.2549992622,0.0052643567,-0.1646444777,-0.9640913969,9.9542523496
1520429895794087617,-0.1062984702,-0.2622506429,-0.0067008405,-0.1069212275,-0.9964726840,9.9502356472
1520429895799103617,-0.1000306735,-0.2654191751,-0.0194526197,-0.1502136652,-1.0780108611,9.9623579838
1520429895804119617,-0.0907436018,-0.2683060677,-0.0281495879,-0.1249597432,-1.1259784448,10.0121311412
1520429895809134617,-0.0804415220,-0.2633222705,-0.0378705834,-0.0395774356,-1.2219163286,9.9939614700
1520429895814149617,-0.0643495877,-0.2531007570,-0.0440452013,-0.0167286490,-1.2626888825,9.9926166875
1520429895819167617,-0.0454923509,-0.2408326413,-0.0523737587,-0.0311594616,-1.3550215712,10.0393329455
1520429895824182617,-0.0268820574,-0.2253593943,-0.0606773955,-0.1021109567,-1.4125747856,10.0377553842
1520429895829197617,-0.0095282972,-0.2081303197,-0.0719413650,-0.1670496132,-1.4581370640,10.0000811417
1520429895834213617,0.0063190343,-0.1897355692,-0.0834641877,-0.2428113791,-1.5312787293,9.9904305943
1520429895839229617,0.0188980305,-0.1719226824,-0.0957970269,-0.3197757127,-1.5624503861,9.9203193396
1520429895844245617,0.0309771969,-0.1535337794,-0.1056895734,-0.4063605880,-1.6068118382,9.9037732099
1520429895849260617,0.0372782504,-0.1336894898,-0.1158308157,-0.4280068069,-1.6080092927,9.8493643044
1520429895854279617,0.0390487507,-0.1202625310,-0.1241187436,-0.4640838383,-1.5732314107,9.7497371652
1520429895859293617,0.0393116265,-0.1094710070,-0.1278245987,-0.4893377602,-1.5384543715,9.6802204232
1520429895864308617,0.0388201197,-0.0998489586,-0.1301852165,-0.4833249217,-1.4844935208,9.6812714217
1520429895869324617,0.0348073008,-0.0943156847,-0.1295944186,-0.3666758535,-1.4605197973,9.6719776367
1520429895874341617,0.0300436120,-0.0899635414,-0.1233296489,-0.3209782804,-1.3945706331,9.6644956672
1520429895879356617,0.0215114090,-0.0847379929,-0.1173217551,-0.3041423324,-1.3286192211,9.6561324751
1520429895884372617,0.0139951707,-0.0751573081,-0.1053303722,-0.2343934051,-1.3142349683,9.6624124134
1520429895889388617,0.0105050376,-0.0614949362,-0.0935858795,-0.1694547486,-1.2938546387,9.6408418705
1520429895894402617,0.0060068081,-0.0489941257,-0.0834716877,-0.2079369154,-1.2446868842,9.6051420268
1520429895899420617,0.0055360442,-0.0327088401,-0.0714422420,-0.2464190822,-1.2410864658,9.6241073838
1520429895904436617,0.0068314994,-0.0111779437,-0.0593760479,-0.2103420508,-1.2350935735,9.6748847194
1520429895909451617,0.0106361675,0.0106591619,-0.0524526700,-0.3197757127,-1.1859202931,9.6910098080
1520429895914465617,0.0192160387,0.0319109985,-0.0439193306,-0.3702835567,-1.1751240956,9.6914908964
1520429895919483617,0.0295512264,0.0534687490,-0.0405274071,-0.4183862652,-1.1367478556,9.6733273765
1520429895924499617,0.0433994110,0.0729961990,-0.0401335843,-0.4652864060,-1.0923760072,9.7527663970
1520429895929514617,0.0569907493,0.0869806886,-0.0373466203,-0.4905403280,-1.0204256150,9.7947792252
1520429895934531617,0.0698139444,0.0934019968,-0.0394858825,-0.5699097970,-0.9760512377,9.8571021230
1520429895939547617,0.0863978716,0.0951706423,-0.0446437197,-0.6240253441,-0.8981028955,9.8889307302
1520429895944561617,0.1027246468,0.0919827385,-0.0487566991,-0.6649126463,-0.8369435495,9.9055390812
1520429895949578617,0.1155269932,0.0850090997,-0.0542447740,-0.7310538705,-0.8177521514,9.9352177487
1520429895954593617,0.1303380601,0.0774563932,-0.0608232124,-0.7527000894,-0.8009624996,9.8866020229
1520429895959610617,0.1446422992,0.0643562574,-0.0633847675,-0.7406744122,-0.7613918022,9.8213663227
1520429895964624617,0.1561830431,0.0518378075,-0.0659367425,-0.7057999486,-0.7613945184,9.7826761256
1520429895969641617,0.1692175958,0.0314634926,-0.0726097296,-0.7394718445,-0.7709850193,9.7737160702
1520429895974657617,0.1804905909,0.0084623857,-0.0779467279,-0.7394718445,-0.8153532149,9.7691107600
1520429895979672617,0.1894934440,-0.0227071153,-0.0800952213,-0.6937742714,-0.8729155143,9.7280470577
1520429895984688617,0.1974966845,-0.0515539467,-0.0792480583,-0.6925717037,-0.8945001356,9.6920299382
1520429895989705617,0.2047532420,-0.0757418347,-0.0772817422,-0.6685203495,-0.9136882556,9.6604366597
1520429895994719617,0.2130176764,-0.0987674329,-0.0739556712,-0.6372535889,-0.9172881120,9.6589736923
1520429895999735617,0.2175147454,-0.1182891525,-0.0738424730,-0.5963662867,-0.9436723858,9.6063049679
1520429896004752617,0.2205015124,-0.1401447243,-0.0729326215,-0.5975688544,-0.9184903432,9.5725899422
1520429896009768617,0.2187175612,-0.1590883215,-0.0719916714,-0.5999739898,-0.8837150836,9.5760658733
1520429896014782617,0.2189441850,-0.1748120610,-0.0761703732,-0.5807329064,-0.9160933736,9.5608022932
1520429896019800617,0.2181737483,-0.1861727108,-0.0776084028,-0.4773120831,-0.8885211986,9.4912022702
1520429896024815617,0.2153994288,-0.1940433613,-0.0768516545,-0.4159811297,-0.8297680946,9.4208193775
1520429896029831617,0.2153907176,-0.2004538209,-0.0769005624,-0.4123734266,-0.8213743926,9.4149653572
1520429896034846617,0.2136301243,-0.2036692095,-0.0734046526,-0.3041423324,-0.7710189242,9.4231599415
1520429896039862617,0.2136230754,-0.2124267708,-0.0675193354,-0.1574290715,-0.7866191762,9.4868271874
1520429896044877617,0.2110971810,-0.2276052459,-0.0581611623,-0.0684390607,-0.8094097751,9.4848210867
1520429896049894617,0.2090786320,-0.2407503882,-0.0463534479,-0.0455902742,-0.8058141334,9.5252702211
1520429896054911617,0.2048030509,-0.2527410766,-0.0307449982,0.0109304084,-0.7806365865,9.5002905042
1520429896059926617,0.2020354431,-0.2629755827,-0.0178314692,-0.0251466230,-0.8178071298,9.4623271550
1520429896064940617,0.1927410166,-0.2682598402,-0.0045974671,-0.0287543262,-0.8166077084,9.3496331372
1520429896069957617,0.1864672335,-0.2706327131,0.0100058947,-0.0010952688,-0.8345969689,9.3168414303
1520429896074973617,0.1802000523,-0.2671735248,0.0230304428,-0.0071081073,-0.8465879049,9.2518315875
1520429896079989617,0.1714216039,-0.2605013502,0.0328375614,-0.0131209459,-0.8681719642,9.1856689555
1520429896085005617,0.1586254087,-0.2520846289,0.0434771237,-0.0095132428,-0.8297997516,9.1600292545
1520429896090021617,0.1506005079,-0.2445329063,0.0513956900,-0.0564133836,-0.7914236053,9.1720697724
1520429896095035617,0.1395650785,-0.2340721620,0.0606948174,-0.0395774356,-0.7830309336,9.1707355723
1520429896100052617,0.1267706905,-0.2230271526,0.0691900203,-0.0251466230,-0.7758372150,9.1124808979
1520429896105068617,0.1167475837,-0.2073210930,0.0785272963,0.0145381115,-0.7242772676,9.1062336296
1520429896110085617,0.1049616019,-0.1942374549,0.0875772857,0.0458048720,-0.7230805623,9.1012795530
1520429896115098617,0.0951868889,-0.1811559429,0.0977057248,0.0927050128,-0.7422704618,9.1043281971
1520429896120116617,0.0856650586,-0.1669087943,0.1078425897,0.1251743411,-0.7650566587,9.0540621880
1520429896125132617,0.0789058375,-0.1561673751,0.1217352860,0.1456179922,-0.7590625488,9.1200995607
1520429896130148617,0.0698808379,-0.1474621631,0.1339933459,0.1865052944,-0.7314855035,9.2079976345
1520429896135163617,0.0641226799,-0.1384628297,0.1457064698,0.2394182738,-0.7554724330,9.1900738395
1520429896140179617,0.0583591118,-0.1329579254,0.1565812788,0.2887235500,-0.7290951837,9.2546482682
1520429896145194617,0.0488265866,-0.1280416376,0.1690819180,0.3031543626,-0.7219014651,9.3091215573
1520429896150210617,0.0377895263,-0.1199170686,0.1802570819,0.3632827482,-0.6895293567,9.3352340433
1520429896155227617,0.0320231002,-0.1158661732,0.1900385920,0.4029674828,-0.6427659709,9.3301535964
1520429896160241617,0.0232464081,-0.1091998259,0.2020100777,0.4282214047,-0.6235816910,9.3415105203
1520429896165257617,0.0144748636,-0.0987454799,0.2140104635,0.5015780352,-0.5612321023,9.3825728886
1520429896170272617,0.0072129154,-0.0871257334,0.2262874872,0.4991728998,-0.5924095660,9.3024387687
1520429896175289617,-0.0035698548,-0.0769621026,0.2377482919,0.4570830299,-0.6247830793,9.3121771694
1520429896180305617,-0.0125847790,-0.0606801645,0.2497936062,0.4715138424,-0.6451695904,9.2864894205
1520429896185321617,-0.0218500336,-0.0435234428,0.2615755105,0.5184139832,-0.7063294047,9.2953897113
1520429896190336617,-0.0270941070,-0.0246102827,0.2709283727,0.4991728998,-0.7315098551,9.2793315329
1520429896195351617,-0.0335900133,-0.0030787963,0.2816563057,0.4943626290,-0.7183189358,9.2758790586
1520429896200368617,-0.0378285817,0.0167118248,0.2899317867,0.5027806029,-0.7387049786,9.3594913666
1520429896205384617,-0.0418186662,0.0347556942,0.2976523707,0.5580987177,-0.7423067082,9.3577942981
1520429896210400617,-0.0443041685,0.0507619194,0.3048135009,0.5605038532,-0.7554974402,9.3322165837
1520429896215415617,-0.0435231859,0.0650145615,0.3143901382,0.5617064209,-0.7566966743,9.3531246392
1520429896220433617,-0.0439950436,0.0827669679,0.3226430568,0.5268319572,-0.7866724687,9.3755740544
1520429896225448617,-0.0447283540,0.0964551894,0.3251838550,0.4955651967,-0.7806743314,9.3886561227
1520429896230463617,-0.0434574719,0.1075304790,0.3244543610,0.4727164101,-0.8310364497,9.4121705101
1520429896235479617,-0.0411850954,0.1139352688,0.3269339814,0.4823369518,-0.8286389181,9.5062081913
1520429896240495617,-0.0381578972,0.1215080774,0.3286094563,0.5256293895,-0.8010620601,9.4883277551
1520429896245510617,-0.0348730687,0.1322796584,0.3327438315,0.4943626290,-0.7698819740,9.5048716991
1520429896250526617,-0.0300859907,0.1389724467,0.3368442832,0.5220216864,-0.7962652175,9.5116010720
1520429896255542617,-0.0232837744,0.1476991585,0.3433914757,0.5063883061,-0.7279129958,9.5477130480
1520429896260558617,-0.0174921598,0.1543945259,0.3466784228,0.4366393787,-0.6667514019,9.5239272819
1520429896265573617,-0.0152270360,0.1578963969,0.3450776239,0.4703112747,-0.6631566031,9.4840831379
1520429896270590617,-0.0089363873,0.1619695005,0.3483436298,0.4859446550,-0.6355775909,9.4978498048
1520429896275606617,-0.0051623768,0.1640048416,0.3505165577,0.4558804621,-0.6187872835,9.5469361065
1520429896280621617,-0.0034038574,0.1634220333,0.3507793903,0.4594881653,-0.6427703730,9.5143843474
1520429896285637617,0.0089150582,0.1648728538,0.3548258248,0.5075908738,-0.6619603661,9.5034755590
1520429896290653617,0.0146866121,0.1572925647,0.3571922030,0.5087934415,-0.6391767917,9.4999552047
1520429896295668617,0.0207110448,0.1494144336,0.3619908044,0.4967677644,-0.6259853105,9.5000593925
1520429896300685617,0.0302590713,0.1450321100,0.3676211865,0.5003754675,-0.5900113788,9.4976649092
1520429896305701617,0.0372892716,0.1377378702,0.3721518213,0.5520858792,-0.5792231423,9.4762324766
1520429896310717617,0.0435671515,0.1286819162,0.3815403440,0.5953783168,-0.5792265141,9.4839461022
1520429896315732617,0.0498409424,0.1175906410,0.3892900296,0.6194296711,-0.5504490171,9.5324939830
1520429896320748617,0.0601338758,0.1012378089,0.4037558796,0.6446835931,-0.5624423882,9.6322042503
1520429896325764617,0.0729410285,0.0854672735,0.4187626002,0.5953783168,-0.5468497227,9.6256960925
1520429896330779617,0.0812230420,0.0682373148,0.4340371524,0.5893654783,-0.5744294841,9.5781336104
1520429896335797617,0.0937731799,0.0495586632,0.4468577418,0.5737320980,-0.6259913047,9.6294703918
1520429896340812617,0.1063174254,0.0276798807,0.4577600560,0.5063883061,-0.6763499575,9.6057699641
1520429896345826617,0.1171049549,0.0075487163,0.4686789757,0.4751215456,-0.7219148585,9.5944972909
1520429896350843617,0.1276395234,-0.0102354450,0.4736641371,0.3945495088,-0.7890604470,9.5790769974
1520429896355859617,0.1344038684,-0.0259697364,0.4743431267,0.2911286855,-0.8178317624,9.6091652952
1520429896360875617,0.1464466376,-0.0390714868,0.4720563180,0.2430259770,-0.8466073861,9.5968779781
1520429896365889617,0.1519607965,-0.0439973627,0.4625391513,0.2129617841,-0.8442067638,9.5716010989
1520429896370907617,0.1547095314,-0.0471643595,0.4487117227,0.1901129976,-0.8418067034,9.5857668837
1520429896375923617,0.1559437499,-0.0523585270,0.4300017067,0.2273925967,-0.8130302367,9.5784030991
1520429896380939617,0.1496407637,-0.0560979970,0.4110462620,0.2815081438,-0.8082378897,9.6429517556
1520429896385954617,0.1440969038,-0.0580983342,0.3956198522,0.3175851752,-0.7338939933,9.6820409993
1520429896390970617,0.1365404971,-0.0618484946,0.3804543836,0.3079646335,-0.6871267675,9.7064940586
1520429896395985617,0.1244541604,-0.0687983726,0.3625674032,0.4077777536,-0.6643508732,9.7554725115
1520429896401001617,0.1133755242,-0.0748780739,0.3463085005,0.4161957276,-0.6583558267,9.7902490480
1520429896406017617,0.0985261667,-0.0844675212,0.3343586559,0.4751215456,-0.6391741693,9.8128996699
1520429896411034617,0.0849274149,-0.0957931285,0.3180644049,0.4630958684,-0.6127921434,9.9024760795
1520429896416048617,0.0680632681,-0.1082957519,0.3055549714,0.5232242541,-0.5816191753,9.9099954315
1520429896421066617,0.0532087631,-0.1216731980,0.2935762268,0.5460730406,-0.5240622146,9.9399326500
1520429896426081617,0.0416218838,-0.1371007108,0.2859045874,0.6146194003,-0.4749027958,9.9415418068
1520429896431097617,0.0300319701,-0.1542743456,0.2774079719,0.6134168325,-0.4377293490,9.9519765579
1520429896436113617,0.0237240794,-0.1694127769,0.2713520298,0.6410758899,-0.3993590097,9.9667777942
1520429896441128617,0.0156518593,-0.1892176920,0.2666165149,0.6819631922,-0.3657862622,10.0453728696
1520429896446143617,0.0095946441,-0.2075736380,0.2651349325,0.7372813070,-0.3442060430,10.0738669878
1520429896451160617,0.0070551734,-0.2259267487,0.2631057240,0.7132299527,-0.3154247996,10.1031266236
1520429896456176617,0.0047641867,-0.2460266113,0.2605216186,0.7204453590,-0.3250184850,10.1704700973
1520429896461192617,0.0070055919,-0.2617641319,0.2617501010,0.7517121195,-0.3573977116,10.2155209522
1520429896466207617,0.0062319836,-0.2769193364,0.2627180843,0.7901942863,-0.3370153215,10.2499908303
1520429896471223617,0.0087263616,-0.2906134246,0.2626089320,0.8467149689,-0.3442145660,10.2831498834
1520429896476238617,0.0102238949,-0.3014086300,0.2679347955,0.8382969949,-0.3454130508,10.2588279651
1520429896481255617,0.0102204566,-0.3063730934,0.2719551914,0.8394995626,-0.3669976721,10.2507023004
1520429896486270617,0.0114684552,-0.3142472677,0.2745982935,0.8443098334,-0.3598032042,10.2936477905
1520429896491286617,0.0117168922,-0.3171646567,0.2759283254,0.9032356514,-0.4029768488,10.2989270587
1520429896496301617,0.0124787863,-0.3148493106,0.2818967196,0.9826051204,-0.3538182730,10.3062415897
1520429896501318617,0.0089758922,-0.3113890393,0.2949161338,1.0535566155,-0.3190487267,10.3113278003
1520429896506334617,0.0034677981,-0.3044343982,0.3085070505,1.1124824334,-0.3010662096,10.2886559774
1520429896511350617,0.0037430938,-0.2960256691,0.3239921693,1.1822313608,-0.2782879739,10.2798198590
1520429896516364617,-0.0010017850,-0.2852965739,0.3427509581,1.1714082514,-0.2447111991,10.2961624783
1520429896521382617,-0.0037326232,-0.2725299132,0.3626037582,1.2399546110,-0.2471148185,10.3071190683
1520429896526396617,-0.0029424591,-0.2565515453,0.3805806568,1.3012855644,-0.2459204548,10.3239531004
1520429896531412617,-0.0041663825,-0.2437813801,0.3993484730,1.3109061061,-0.2111461318,10.3668248754
1520429896536429617,-0.0038835715,-0.2327633020,0.4197234257,1.3409702989,-0.1631828563,10.3827554908
1520429896541445617,0.0021780149,-0.2217393172,0.4387349143,1.3626165177,-0.1296086104,10.4638621351
1520429896546459617,0.0094962640,-0.2133496842,0.4623233418,1.3277420540,-0.0996273836,10.4781180757
1520429896551476617,0.0170625149,-0.2064125048,0.4842769117,1.2820444809,-0.0600521906,10.6040358267
1520429896556492617,0.0268816146,-0.2050063747,0.5045607671,1.2231186630,-0.0276708098,10.6905764549
1520429896561508617,0.0394603755,-0.2094377786,0.5288532153,1.1521671679,0.0334908777,10.7632603421
1520429896566523617,0.0530380472,-0.2158968255,0.5487995006,1.0643797249,0.0682727872,10.8512416970
1520429896571540617,0.0681186741,-0.2252662132,0.5676385712,1.0078590424,0.1366281933,10.9214538195
1520429896576555617,0.0824432051,-0.2360920905,0.5861973807,0.9549460630,0.2277669865,10.9555821469
1520429896581571617,0.0985231350,-0.2486612152,0.6031163091,0.8948176774,0.2949235332,10.9340211816
1520429896586587617,0.1128452942,-0.2597719211,0.6192379824,0.9104510576,0.3824595666,10.9686479727
1520429896591602617,0.1286775280,-0.2714750034,0.6391400517,0.8310815886,0.4220373821,11.0298134039
1520429896596617617,0.1445218172,-0.2741444369,0.6588404908,0.8106379375,0.4556149062,11.0055746253
1520429896601635617,0.1573479329,-0.2756356736,0.6734150509,0.7938019895,0.4724041833,10.9871278221
1520429896606649617,0.1674182061,-0.2718874424,0.6896580358,0.7108248173,0.4808046288,10.9902515735
1520429896611666617,0.1789947865,-0.2654994058,0.6996956726,0.6470887285,0.4676190482,10.9467233340
1520429896616681617,0.1895801635,-0.2483283502,0.7090057927,0.5304396603,0.4652298523,10.9583203587
1520429896621698617,0.1976494825,-0.2296846026,0.7121091398,0.4534753267,0.4808246721,10.9753242963
1520429896626713617,0.2057246156,-0.2043280845,0.7112054295,0.3680930191,0.4988184283,11.0121642778
1520429896631729617,0.2130492512,-0.1722510783,0.7033200571,0.2839132792,0.4940284228,11.0583119233
1520429896636745617,0.2193685229,-0.1375396219,0.6908572790,0.2646721958,0.4844367980,11.1061564610
1520429896641760617,0.2239345129,-0.0975795626,0.6768145082,0.1744796173,0.4964352267,11.1314276699
1520429896646775617,0.2267441436,-0.0538241809,0.6598278997,0.1215666379,0.4736556797,11.0785062879
1520429896651792617,0.2315595977,-0.0103455559,0.6376949623,0.0939075805,0.3921162851,11.0742064435
1520429896656809617,0.2300912599,0.0316714997,0.6163742153,0.0698562263,0.3777284732,11.0500495536
1520429896661825617,0.2318798255,0.0684543835,0.5914902887,0.0361843303,0.3513500064,10.9737015197
1520429896666839617,0.2248666869,0.1014494645,0.5652410677,-0.0022978365,0.2650148930,10.9207016520
1520429896671856617,0.2160888698,0.1306573144,0.5384251220,0.0001072989,0.2650147057,10.8044638465
1520429896676872617,0.2100613519,0.1505463130,0.5099096282,0.0217535178,0.2398310709,10.7403597941
1520429896681887617,0.1995059622,0.1651798768,0.4846090706,0.0746664971,0.2158441414,10.6108701795
1520429896686904617,0.1846711417,0.1731040952,0.4614296836,0.0482100075,0.1882659722,10.5786145548
1520429896691919617,0.1710830417,0.1714021901,0.4422327895,0.1143512317,0.1702737145,10.5431239982
1520429896696934617,0.1590018956,0.1679474695,0.4249135778,0.1744796173,0.0947231849,10.4287223062
1520429896701951617,0.1423981508,0.1606833102,0.4148786063,0.1504282631,0.0623482666,10.3650700620
1520429896706966617,0.1235298115,0.1507936187,0.4056394652,0.1420102891,0.0659463435,10.2617176775
1520429896711983617,0.1049105246,0.1382771944,0.3980031250,0.1528333985,0.0023910581,10.1826485181
1520429896716997617,0.0872944532,0.1243042413,0.3903538024,0.1600488048,-0.0779519122,10.0850365413
1520429896722013617,0.0716869612,0.1062403091,0.3872689031,0.1143512317,-0.0863423361,9.9994908662
1520429896727030617,0.0523059880,0.0870173747,0.3812061075,0.1636565079,-0.1618920228,9.9560853010
1520429896732045617,0.0359314896,0.0596302991,0.3775103778,0.1744796173,-0.1966679380,9.8769880774
1520429896737062617,0.0150428370,0.0336743358,0.3827621792,0.1853027267,-0.2638206447,9.7630581074
1520429896742078617,-0.0048462891,0.0059813855,0.3839405867,0.1816950236,-0.3117859806,9.6829520633
1520429896747092617,-0.0234849037,-0.0257889990,0.3845444456,0.2153669196,-0.3393688329,9.6280304507
1520429896752109617,-0.0456303131,-0.0514518848,0.3889891660,0.2490388155,-0.3465662979,9.5498460802
1520429896757125617,-0.0695371470,-0.0791566083,0.3939626836,0.2261900290,-0.3261791311,9.4698606647
1520429896762141617,-0.0889137372,-0.1013210684,0.3981584011,0.2791030083,-0.3321789543,9.3949742758
1520429896767155617,-0.1143161794,-0.1208712581,0.4045496950,0.3091672012,-0.3729520702,9.2738584357
1520429896772171617,-0.1379584673,-0.1372046023,0.4069039872,0.3127749043,-0.4233162490,9.1843873483
1520429896777188617,-0.1590846855,-0.1506202030,0.4081936595,0.3235980137,-0.4161222494,9.0785198869
1520429896782203617,-0.1832209031,-0.1602504431,0.4100589244,0.3296108523,-0.4269149815,8.9901489452
1520429896787220617,-0.2050915578,-0.1663802691,0.4108644823,0.3416365294,-0.4293141989,8.9133327323
1520429896792236617,-0.2269547284,-0.1652174692,0.4087496124,0.3163826074,-0.4413036363,8.8287537232
1520429896797250617,-0.2483169244,-0.1634636906,0.4036622503,0.3211928783,-0.4341091684,8.7822141288
1520429896802268617,-0.2691687799,-0.1561741374,0.3988867394,0.3813212639,-0.4413086939,8.7444472855
1520429896807283617,-0.2887613656,-0.1453809218,0.3917006587,0.3957520765,-0.3861493584,8.6919565572
1520429896812299617,-0.3060862793,-0.1305088936,0.3850825926,0.3945495088,-0.3873484051,8.6199165065
1520429896817315617,-0.3234147449,-0.1138688905,0.3711731258,0.3981572119,-0.3789547031,8.6175489180
1520429896822331617,-0.3427524132,-0.0963555216,0.3572740620,0.4642984361,-0.3573753268,8.5669119018
1520429896827346617,-0.3532933915,-0.0782573944,0.3439042009,0.4630958684,-0.3753623395,8.5436982678
1520429896832362617,-0.3670984436,-0.0598771755,0.3335186351,0.5400602021,-0.3993511422,8.5301889475
1520429896837378617,-0.3793962281,-0.0409092261,0.3215114398,0.5725295303,-0.3561846158,8.5333172467
1520429896842393617,-0.3874210935,-0.0201861968,0.3076158274,0.5917706137,-0.3645800973,8.5319760072
1520429896847409617,-0.3944408106,-0.0006334109,0.2956032770,0.5605038532,-0.3957553132,8.5590400524
1520429896852426617,-0.3964327478,0.0200861539,0.2838608305,0.5893654783,-0.3621816292,8.6063742917
1520429896857441617,-0.3989289528,0.0402256664,0.2710326876,0.5989860200,-0.3453944125,8.6097507123
1520429896862456617,-0.3989142394,0.0580314451,0.2595348222,0.5941757491,-0.3561863017,8.6446723752
1520429896867473617,-0.3976492771,0.0720533594,0.2466529937,0.6013911554,-0.3178143701,8.6968612040
1520429896872489617,-0.3931153169,0.0881184306,0.2329690217,0.6025937231,-0.3429964126,8.7305762297
1520429896877505617,-0.3878334467,0.0986423921,0.2211352322,0.5773398012,-0.3705746755,8.8075504317
1520429896882520617,-0.3777771614,0.1094617941,0.2084831603,0.5677192594,-0.3274048710,8.8168991276
1520429896887536617,-0.3664684278,0.1179535259,0.1947287865,0.5292370926,-0.3321984356,8.9032770193
1520429896892552617,-0.3591825377,0.1270359210,0.1774692299,0.5003754675,-0.3621746983,8.9407757807
1520429896897567617,-0.3473693089,0.1390339336,0.1602235030,0.4895523581,-0.3633729958,8.9978273493
1520429896902583617,-0.3365662035,0.1472428251,0.1432212889,0.4630958684,-0.3453838289,9.0596609500
1520429896907599617,-0.3250128946,0.1537080754,0.1245810607,0.4246137016,-0.3597705169,9.1274538933
1520429896912614617,-0.3139598036,0.1633849145,0.1035313068,0.3897392379,-0.3585686603,9.2440065660
1520429896917630617,-0.3031680870,0.1654849290,0.0826947653,0.3729032900,-0.3525716470,9.3185418031
1520429896922648617,-0.2926237135,0.1690352117,0.0643047190,0.3765109931,-0.3405805237,9.3487107374
1520429896927662617,-0.2823389069,0.1676369581,0.0439835257,0.3897392379,-0.3201961668,9.4357228996
1520429896932678617,-0.2715535688,0.1653676615,0.0225725462,0.3608776128,-0.3010076722,9.5103623246
1520429896937694617,-0.2622774350,0.1607608706,0.0033109494,0.3392313940,-0.2698283353,9.5721362423
1520429896942710617,-0.2552621164,0.1546868012,-0.0124404656,0.3933469411,-0.2638368479,9.6413323054
1520429896947725617,-0.2469897352,0.1477332432,-0.0260365163,0.4306265402,-0.2422552237,9.6897584466
1520429896952742617,-0.2399798347,0.1352377878,-0.0377786507,0.4943626290,-0.2242730813,9.7542005999
1520429896957757617,-0.2342229156,0.1227301852,-0.0451897172,0.5172114155,-0.2218765800,9.8039480552
1520429896962772617,-0.2279568518,0.1119572466,-0.0474480066,0.5448704729,-0.1978959257,9.8826812410
1520429896967789617,-0.2237093605,0.0956493995,-0.0505564386,0.5520858792,-0.1871042239,9.9616262755
1520429896972805617,-0.2217194698,0.0813759875,-0.0520218330,0.5725295303,-0.1811101140,9.9846643219
1520429896977821617,-0.2177119317,0.0714697604,-0.0518343396,0.6001885877,-0.1775148469,10.0483095151
1520429896982837617,-0.2149568418,0.0638912036,-0.0505445443,0.5977834523,-0.1547309915,10.0703914429
1520429896987852617,-0.2109408631,0.0577620489,-0.0462699623,0.6398733222,-0.1499377079,10.1315707181
1520429896992869617,-0.2074250631,0.0530881631,-0.0414422397,0.6446835931,-0.1715226102,10.1884899998
1520429896997883617,-0.2008844368,0.0557022572,-0.0373761783,0.6518989994,-0.1559343466,10.2081610153
1520429897002900617,-0.1966087578,0.0551065933,-0.0319776408,0.6603169733,-0.1511384406,10.2359658574
1520429897007916617,-0.1920753622,0.0571240189,-0.0230424657,0.6422784577,-0.1307516485,10.2628508654
1520429897012931617,-0.1852728833,0.0655571609,-0.0156858585,0.5941757491,-0.1271504808,10.2993420223
1520429897017947617,-0.1767116615,0.0748702446,-0.0102196705,0.5713269626,-0.1655211948,10.3449254514
1520429897022963617,-0.1679017362,0.0824358481,-0.0050378335,0.5244268218,-0.2026908952,10.3558774937
1520429897027979617,-0.1585904442,0.0894203363,-0.0004024680,0.5015780352,-0.2302693454,10.3816939516
1520429897032995617,-0.1477681053,0.0981508086,0.0053256192,0.4354368110,-0.2794289515,10.3928449682
1520429897038010617,-0.1351865374,0.1089304030,0.0078194503,0.3500545034,-0.3441758845,10.4390627857
1520429897043027617,-0.1243645474,0.1185401280,0.0116603856,0.2995466595,-0.4137220953,10.4454329395
1520429897048042617,-0.1155542653,0.1281534359,0.0138817792,0.2598619249,-0.4952605533,10.4854116159
1520429897053058617,-0.1069961602,0.1377695590,0.0150214560,0.2370131384,-0.5672071992,10.5135956272
1520429897058075617,-0.1039742389,0.1424328929,0.0150514247,0.2285951644,-0.6679343391,10.5172622190
1520429897063089617,-0.0999434292,0.1488405572,0.0167161404,0.1925181330,-0.7302868314,10.5130256005
1520429897068106617,-0.0964181183,0.1540868571,0.0167496218,0.1961258361,-0.7302871123,10.4804504546
1520429897073122617,-0.1011927490,0.1552556236,0.0148735606,0.2165694873,-0.7554706534,10.4791138808
1520429897078137617,-0.1052143574,0.1578910777,0.0094901180,0.2009361070,-0.7686599805,10.3886316809
1520429897083153617,-0.1099913168,0.1584821741,0.0057157894,0.2730901698,-0.7782587235,10.3472636938
1520429897088169617,-0.1167762480,0.1605279487,0.0024974018,0.3885366702,-0.7782677149,10.3484642963
1520429897093185617,-0.1270812524,0.1619932179,-0.0020716274,0.4149931599,-0.7710749328,10.3249568899
1520429897098200617,-0.1353697464,0.1695856343,-0.0093031645,0.4017649151,-0.7458919537,10.3483039685
1520429897103217617,-0.1408987048,0.1736825193,-0.0165665126,0.4318291079,-0.6979286783,10.3421538488
1520429897108232617,-0.1479418307,0.1748729810,-0.0268252960,0.5051857384,-0.6319816682,10.4018070123
1520429897113247617,-0.1517179857,0.1754790399,-0.0360124094,0.5424653375,-0.6008069207,10.4211701999
1520429897118264617,-0.1539879315,0.1749201514,-0.0452112156,0.5508833115,-0.5636342232,10.4245384469
1520429897123280617,-0.1544972487,0.1743568530,-0.0525194675,0.5364524989,-0.4916846738,10.4199601714
1520429897128295617,-0.1507396764,0.1703000710,-0.0604034225,0.5580987177,-0.4557121470,10.4557408628
1520429897133311617,-0.1477361810,0.1644874021,-0.0655938569,0.5160088478,-0.4089423924,10.4712128069
1520429897138327617,-0.1432332549,0.1513856118,-0.0689488475,0.4799318164,-0.3309954551,10.4749743834
1520429897143342617,-0.1344636197,0.1330347462,-0.0701874208,0.4919574935,-0.3022170215,10.4806399885
1520429897148358617,-0.1249415895,0.1114694766,-0.0679347515,0.4570830299,-0.2758332161,10.4960615811
1520429897153375617,-0.1114051565,0.0855364713,-0.0662639879,0.3849289671,-0.2674336135,10.5072149947
1520429897158390617,-0.0971182182,0.0558099350,-0.0624591574,0.3344211231,-0.3153952967,10.4914833652
1520429897163405617,-0.0856054230,0.0185048611,-0.0581659014,0.3416365294,-0.4257167776,10.4891964262
1520429897168422617,-0.0713332647,-0.0211243785,-0.0560599311,0.3163826074,-0.4808752703,10.4755502945
1520429897173437617,-0.0573199716,-0.0659971812,-0.0545346015,0.2815081438,-0.6655401793,10.4098276140
1520429897178454617,-0.0420482908,-0.1088268862,-0.0540782275,0.2502413832,-0.8142311567,10.3579804656
1520429897183469617,-0.0340549063,-0.1452511722,-0.0527477729,0.2141643518,-0.9569260573,10.2132027744
1520429897188484617,-0.0270675050,-0.1807951424,-0.0538436952,0.2586593572,-1.1284066032,10.0560474690
1520429897193502617,-0.0228384515,-0.2119694278,-0.0549011374,0.2310002998,-1.2938858275,9.9007507643
1520429897198517617,-0.0216181663,-0.2387770405,-0.0548374489,0.2249874613,-1.4281890866,9.8335359062
1520429897203533617,-0.0224025950,-0.2609211031,-0.0555460950,0.1816950236,-1.5373074934,9.7271464543
1520429897208549617,-0.0294596776,-0.2737338526,-0.0596890310,0.1636565079,-1.6536227095,9.6286532200
1520429897213564617,-0.0427972865,-0.2818723424,-0.0691956474,0.0951101483,-1.8083064855,9.5527697520
1520429897218580617,-0.0483286167,-0.2780602860,-0.0788961316,0.0217535178,-1.8970371636,9.4117887291
1520429897223596617,-0.0644196374,-0.2751134066,-0.0934535088,0.0049175698,-2.0133524734,9.3144459336
1520429897228611617,-0.0835195951,-0.2651650104,-0.1114690280,-0.1117314984,-2.0744995500,9.2807766418
1520429897233627617,-0.0978383592,-0.2487969997,-0.1321499660,-0.2067343477,-2.1020723806,9.1992160153
1520429897238644617,-0.1129124233,-0.2318392309,-0.1555305166,-0.2692678688,-2.1452365656,9.1347867130
1520429897243659617,-0.1342721219,-0.2157515213,-0.1813409814,-0.3366116607,-2.1140536696,9.1121689143
1520429897248676617,-0.1493422695,-0.1955870659,-0.2052381699,-0.4003477495,-2.0744770716,9.0953185347
1520429897253692617,-0.1646616459,-0.1730879905,-0.2304698364,-0.4749069477,-2.0109168223,9.1052794249
1520429897258707617,-0.1787235638,-0.1511770194,-0.2535439155,-0.5206045208,-1.9041897655,9.0893501305
1520429897263721617,-0.1905254271,-0.1330648160,-0.2723223610,-0.5518712813,-1.7686844625,9.0546580080
1520429897268739617,-0.1965361108,-0.1067923097,-0.2907787488,-0.6721280526,-1.6475619137,9.0371161071
1520429897273754617,-0.2000372445,-0.0854832823,-0.3052194078,-0.7238384643,-1.5000636143,9.0467727474
1520429897278770617,-0.1985076539,-0.0621391500,-0.3172189266,-0.7587129279,-1.3981339622,9.0353913607
1520429897283786617,-0.1901853463,-0.0355980560,-0.3251484046,-0.7466872508,-1.2914114011,9.0688724136
1520429897288802617,-0.1808511669,-0.0082006255,-0.3263094328,-0.7286487351,-1.1559099381,9.0360246717
1520429897293817617,-0.1672452681,0.0156872959,-0.3220941544,-0.7935873916,-1.0419865403,9.0342213696
1520429897298833617,-0.1465976390,0.0419017659,-0.3151687007,-0.8152336104,-0.9412570588,9.0064423812
1520429897303849617,-0.1206724326,0.0660684138,-0.3044809671,-0.7815617145,-0.8453284474,9.0618040023
1520429897308865617,-0.0899712783,0.0890619246,-0.2902938971,-0.7238384643,-0.7997656070,9.1355749378
1520429897313880617,-0.0592664859,0.1097017779,-0.2677376889,-0.6492792661,-0.7326195502,9.1382701732
1520429897318897617,-0.0258095087,0.1201384282,-0.2431000555,-0.6865588652,-0.6486768171,9.1769019266
1520429897323912617,0.0071439849,0.1276508383,-0.2146960769,-0.6588998078,-0.6019124948,9.2102892808
1520429897328929617,0.0441129279,0.1281577549,-0.1812125480,-0.5747200679,-0.6103130340,9.3140710681
1520429897333944617,0.0835977524,0.1268998665,-0.1412539233,-0.5807329064,-0.5587495274,9.3396464788
1520429897338960617,0.1230683693,0.1163227723,-0.1032602586,-0.5879483127,-0.5839309144,9.3687948641
1520429897343976617,0.1580057514,0.0981664513,-0.0647749013,-0.5939611513,-0.6414891864,9.4212059956
1520429897348991617,0.1914334039,0.0782597755,-0.0257589904,-0.6456715629,-0.6546757037,9.3984792967
1520429897354008617,0.2208288863,0.0522426474,0.0094300607,-0.6925717037,-0.7050359487,9.4117684896
1520429897359023617,0.2431834734,0.0241888983,0.0424522514,-0.7142179226,-0.8057620584,9.4004559656
1520429897364038617,0.2662859783,-0.0064790034,0.0724770292,-0.7406744122,-0.9052886530,9.3252711750
1520429897369055617,0.2790744188,-0.0412128429,0.0959967180,-0.7094076517,-0.9508584243,9.2634176488
1520429897374071617,0.2855873866,-0.0698256981,0.1179514843,-0.6336458858,-1.0324058737,9.1395724862
1520429897379087617,0.2883300878,-0.0960958421,0.1350612100,-0.5614918230,-1.0456020379,8.9901286194
1520429897384102617,0.2862994756,-0.1212015903,0.1519181499,-0.5566815522,-1.0503989742,8.8866556646
1520429897389119617,0.2797489227,-0.1413446472,0.1647630948,-0.4869326248,-1.1055648660,8.8081669160
1520429897394134617,0.2696790924,-0.1600219618,0.1738380468,-0.4051580203,-1.1511385710,8.7748753763
1520429897399148617,0.2500604398,-0.1763632003,0.1797019681,-0.3029397647,-1.1571422342,8.7204276713
1520429897404166617,0.2327100315,-0.1880421288,0.1858678042,-0.2007215091,-1.1403622294,8.6462013017
1520429897409181617,0.2113358116,-0.2000052759,0.1887923341,-0.0588185190,-1.1571612472,8.5634863990
1520429897414195617,0.1897215562,-0.2035176417,0.1915112542,0.0518177106,-1.1607672851,8.5380080188
1520429897419213617,0.1668582436,-0.2009085110,0.1931970091,0.1816950236,-1.1691713834,8.5193198987
1520429897424229617,0.1447531361,-0.1962644922,0.1967907468,0.2875209823,-1.1643830638,8.5217716083
1520429897429245617,0.1188812787,-0.1878259387,0.1974443806,0.3837263994,-1.1811785225,8.4987708394
1520429897434260617,0.1015653231,-0.1726909348,0.2013798275,0.4438547850,-1.1979711714,8.5330662759
1520429897439277617,0.0817379670,-0.1549278987,0.2029050363,0.4859446550,-1.2483383473,8.5466514387
1520429897444292617,0.0649261066,-0.1380414770,0.2057707046,0.5196165509,-1.2783194804,8.5847036810
1520429897449308617,0.0508803447,-0.1170622055,0.2040630820,0.5075908738,-1.3035004927,8.6348174778
1520429897454324617,0.0373348477,-0.0981238857,0.2028800561,0.5472756083,-1.3382786557,8.6658430085
1520429897459340617,0.0247976236,-0.0777318916,0.2030590083,0.5665166917,-1.3478732777,8.6993672570
1520429897464354617,0.0160307640,-0.0558778558,0.2018893455,0.5665166917,-1.3586655415,8.7377285315
1520429897469371617,0.0095173218,-0.0404348504,0.2012076661,0.5773398012,-1.3754543503,8.7446124205
1520429897474387617,0.0030074864,-0.0226622257,0.2010848633,0.6146194003,-1.4246220112,8.7396489308
1520429897479403617,0.0015191426,-0.0072143374,0.1993116659,0.5785423689,-1.4821779417,8.7423804987
1520429897484418617,0.0012842546,0.0050244427,0.1991349563,0.5629089886,-1.5001638305,8.7379016287
1520429897489435617,0.0010488845,0.0175575211,0.1978782862,0.5160088478,-1.5085541607,8.7674199102
1520429897494449617,0.0040734560,0.0280660279,0.1914596151,0.5280345249,-1.5349361866,8.7719771609
1520429897499466617,0.0086057304,0.0376973297,0.1863842038,0.5292370926,-1.5864993185,8.7627185858
