#timestamp [ns],w_RS_S_x [rad s^-1],w_RS_S_y [rad s^-1],w_RS_S_z [rad s^-1],a_RS_S_x [m s^-2],a_RS_S_y [m s^-2],a_RS_S_z [m s^-2]
1403636858631666432,-0.050265482457436693,0.039095375244672985,0.052359877559829883,9.7821333750000008,-0.46581587499999999,-3.2198500833333328
1403636858636666624,-0.063529984772593598,0.067718774977379978,0.040491638646268438,9.7167557083333325,-0.31871612500000002,-3.2116778749999999
1403636858641666560,-0.08237954069413235,0.072605696882964116,0.034208453339088861,9.3490063333333335,-0.14709974999999997,-3.1544724166666662
1403636858646666496,-0.090058989402907408,0.067718774977379978,0.043982297150257102,9.332661916666666,-0.3105439166666667,-3.1299557916666663
1403636858651666432,-0.099832833214075656,0.059341194567807204,0.02722713633111154,8.9240514999999991,-0.72732654166666666,-2.9419949999999999
1403636858656666624,-0.098436569812480182,0.0076794487087750501,0.021642082724729686,8.6053353749999992,-0.58839899999999989,-2.8929617499999996
1403636858661666560,-0.10053096491487339,0.0020943951023931952,0.031415926535897934,9.2672842499999994,-0.4903325,-2.9910282499999998
1403636858666666496,-0.10890854532444616,-0.012566370614359173,0.039793506945470715,9.1120122916666659,-0.66194887499999999,-2.9910282499999998
1403636858671666432,-0.1165879940332212,-0.012566370614359173,0.056548667764616284,9.5042782916666653,-0.43312704166666666,-3.1299557916666663
1403636858676666624,-0.10192722831646883,-0.016755160819145562,0.098436569812480182,9.2672842499999994,-0.59657120833333332,-2.9338227916666666
1403636858681666560,-0.095644043009289262,-0.018151424220741029,0.10681415022205297,9.9210609166666668,-0.89894291666666659,-3.366949833333333
1403636858686666496,-0.085172067497323284,-0.016755160819145562,0.088662726001311934,9.4961060833333324,-0.62108783333333339,-3.0482337083333335
1403636858691666432,-0.074700091985357306,-0.041189770347066175,0.1054178868204575,9.6595502499999988,-0.17161637500000002,-3.2852277500000002
1403636858696666624,-0.088662726001311934,-0.052359877559829883,0.084473935796525554,9.733100125,-0.32688833333333334,-3.3179165833333331
1403636858701666560,-0.10471975511965977,-0.08168140899333462,0.060039326268604934,9.9210609166666668,-0.14709974999999997,-3.4568441249999995
1403636858706666496,-0.10821041362364843,-0.074001960284559576,0.062133721370998138,10.010955208333332,-0.065377666666666667,-3.2852277500000002
1403636858711666432,-0.10821041362364843,-0.08168140899333462,0.066322511575784518,10.043644041666665,-0.61291562499999996,-3.4078108749999996
1403636858716666624,-0.11309733552923257,-0.072605696882964116,0.036302848441482058,10.264293666666665,-0.52302133333333334,-3.2852277500000002
1403636858721666560,-0.10681415022205297,-0.059341194567807204,0.05375614096142535,9.9537497499999983,-0.26968287499999999,-3.162644625
1403636858726666496,-0.095644043009289262,-0.041189770347066175,0.064228116473391328,9.9128887083333321,-0.45764366666666667,-3.2280222916666665
1403636858731666432,-0.10053096491487339,-0.035604716740684328,0.050963614158234416,9.7576167499999986,-0.62108783333333339,-3.162644625
1403636858736666624,-0.093549647906896058,-0.029321531433504733,0.055850536063818547,9.6758946666666663,-0.30237170833333332,-3.0727503333333335
1403636858741666560,-0.085172067497323284,-0.028623399732707,0.078888882190143686,9.4961060833333324,-0.56388237500000005,-3.0564059166666664
1403636858746666496,-0.08168140899333462,-0.02652900463031381,0.065624379874986788,9.6595502499999988,-0.44129924999999998,-3.1463002083333333
1403636858751666432,-0.084473935796525554,-0.02652900463031381,0.067020643276582248,9.1365289166666663,-0.3105439166666667,-2.803067458333333
1403636858756666624,-0.07819075048934597,-0.037000980142279788,0.088662726001311934,9.332661916666666,-0.30237170833333332,-2.9583394166666666
1403636858761666560,-0.072605696882964116,-0.028623399732707,0.086568330898918744,9.5042782916666653,-0.67829329166666663,-3.0073726666666665
1403636858766666496,-0.062831853071795868,-0.033510321638291124,0.094247779607693802,9.6268614166666655,-0.4494714583333333,-3.1953334583333328
1403636858771666432,-0.046076692252650306,-0.018849555921538759,0.12217304763960307,9.643205833333333,-0.43312704166666666,-3.1299557916666663
1403636858776666624,-0.037699111843077518,-0.023038346126325153,0.12566370614359174,9.9537497499999983,-0.35957716666666667,-3.2933999583333331
1403636858781666560,-0.035604716740684328,-0.02583087292951608,0.11728612573401893,9.7821333750000008,-0.17161637500000002,-3.1953334583333328
1403636858786666496,-0.032812189937493394,-0.049567350756638949,0.11868238913561441,10.027299624999999,0.016344416666666667,-3.1463002083333333
1403636858791666432,-0.043982297150257102,-0.048869219055841226,0.096342174710086978,10.313326916666666,-0.13892754166666665,-3.3260887916666664
1403636858796666624,-0.056548667764616284,-0.05375614096142535,0.063529984772593598,10.264293666666665,0.040861041666666667,-3.2525389166666665
1403636858801666560,-0.069115038378975438,-0.045378560551852569,0.05445427266222308,10.329671333333332,0.29419949999999995,-3.2361944999999999
1403636858806666496,-0.078888882190143686,-0.042586033748661642,0.048869219055841226,10.198916000000001,-0.15527195833333335,-3.1136113750000001
1403636858811666432,-0.086568330898918744,-0.039793506945470715,0.027925268031909273,10.198916000000001,-0.27785508333333331,-3.2035056666666666
1403636858816666624,-0.07958701389094143,-0.034208453339088861,0.037699111843077518,9.9537497499999983,-0.18796079166666665,-3.0482337083333335
1403636858821666560,-0.075398223686155036,-0.0307177948351002,0.061435589670200401,9.8965442916666664,-0.30237170833333332,-3.162644625
1403636858826666496,-0.07958701389094143,-0.029321531433504733,0.063529984772593598,9.822994416666667,-0.34323275000000003,-3.1054391666666663
1403636858831666432,-0.080285145591739146,-0.028623399732707,0.090058989402907408,9.6023447916666651,-0.22882183333333334,-2.9501672083333332
1403636858836666624,-0.07749261878854824,-0.032812189937493394,0.11519173063162574,9.6922390833333321,-0.48216029166666663,-2.9583394166666666
1403636858841666560,-0.076794487087750496,-0.031415926535897934,0.12147491593880534,9.7412723333333329,-0.65377666666666667,-2.9583394166666666
1403636858846666496,-0.074001960284559576,-0.030019663134302467,0.1291543646475804,9.7004112916666649,-0.3350605416666666,-2.9338227916666666
1403636858851666432,-0.069115038378975438,-0.023736477827122883,0.14940018397071461,9.6268614166666655,-0.29419949999999995,-2.8602729166666667
1403636858856666624,-0.07609635538695278,-0.018849555921538759,0.14590952546672595,9.8475110416666656,-0.32688833333333334,-2.9665116249999999
1403636858861666560,-0.088662726001311934,-0.0048869219055841231,0.14241886696273731,9.7739611666666661,-0.16344416666666667,-2.9174783749999995
1403636858866666496,-0.097738438111682452,-0.01117010721276371,0.14381513036433274,9.8638554583333331,-0.057205458333333334,-2.9501672083333332
1403636858871666432,-0.10821041362364843,-0.0090757121103705145,0.11519173063162574,9.8883720833333317,-0.22882183333333334,-3.0482337083333335
1403636858876666624,-0.12636183784438945,-0.0153588974175501,0.07958701389094143,10.010955208333332,-0.04903325,-3.138128
1403636858881666560,-0.13264502315156904,-0.0097738438111682462,0.064926248174189058,9.8556832499999985,-0.04903325,-3.0972669583333334
1403636858886666496,-0.13473941825396224,-0.020245819323134219,0.05305800926062762,10.051816249999998,-0.36774937499999999,-3.2688833333333331
1403636858891666432,-0.1361356816555577,-0.0153588974175501,0.041189770347066175,9.9128887083333321,-0.49850470833333332,-3.2770555416666665
1403636858896666624,-0.12077678423800758,-0.018849555921538759,0.062831853071795868,9.9047164999999993,-0.4494714583333333,-3.3015721666666664
1403636858901666560,-0.10681415022205297,-0.008377580409572781,0.07958701389094143,9.8148222083333323,-0.68646550000000006,-3.3832942499999996
1403636858906666496,-0.097040306410884708,-0.0062831853071795866,0.087266462599716474,9.822994416666667,-0.65377666666666667,-3.3587776250000001
1403636858911666432,-0.094247779607693802,0.00069813170079773186,0.092851516206098328,9.6268614166666655,-0.37592158333333331,-3.1708168333333329
1403636858916666624,-0.088662726001311934,-0.014660765716752367,0.10611601852125524,9.5533115416666661,-0.4903325,-3.1054391666666663
1403636858921666560,-0.097040306410884708,-0.014660765716752367,0.092153384505300612,9.7085834999999996,-0.5475379583333333,-3.1136113750000001
1403636858926666496,-0.10053096491487339,-0.017453292519943295,0.084473935796525554,9.6105169999999998,-0.43312704166666666,-2.9828560416666661
1403636858931666432,-0.10122909661567112,-0.01117010721276371,0.095644043009289262,9.6922390833333321,-0.50667691666666659,-2.9093061666666666
1403636858936666624,-0.10053096491487339,-0.008377580409572781,0.099832833214075656,9.7004112916666649,-0.61291562499999996,-2.9174783749999995
1403636858941666560,-0.10262536001726656,0.0048869219055841231,0.10053096491487339,9.6023447916666651,-0.42495483333333334,-2.8439284999999996
1403636858946666496,-0.099832833214075656,0.0034906585039886592,0.1165879940332212,9.5042782916666653,-0.45764366666666667,-2.7948952499999997
1403636858951666432,-0.097738438111682452,0.0090757121103705145,0.114493598930828,9.643205833333333,-0.5475379583333333,-2.9338227916666666
1403636858956666624,-0.10192722831646883,0.0027925268031909274,0.11100294042683936,9.5860003749999994,-0.40861041666666664,-2.9665116249999999
1403636858961666560,-0.10053096491487339,0.0013962634015954637,0.11798425743481668,9.643205833333333,-0.26151066666666667,-3.0237170833333331
1403636858966666496,-0.099134701513277898,0.00069813170079773186,0.11239920382843484,9.7249279166666671,-0.4903325,-3.162644625
1403636858971666432,-0.10611601852125524,-0.00069813170079773186,0.091455252804502868,9.8556832499999985,-0.41678262500000002,-3.1871612499999999
1403636858976666624,-0.099134701513277898,-0.0027925268031909274,0.091455252804502868,9.7739611666666661,-0.23699404166666665,-3.1299557916666663
1403636858981666560,-0.10471975511965977,-0.0034906585039886592,0.07609635538695278,9.7657889583333333,-0.27785508333333331,-3.0972669583333334
1403636858986666496,-0.114493598930828,-0.011868238913561441,0.050265482457436693,9.733100125,-0.30237170833333332,-3.0890947499999997
1403636858991666432,-0.12566370614359174,-0.008377580409572781,0.036302848441482058,9.4797616666666666,-0.23699404166666665,-2.9174783749999995
1403636858996666624,-0.12985249634837812,-0.012566370614359173,0.034906585039886591,9.5042782916666653,-0.47398808333333331,-3.0318892916666664
1403636859001666560,-0.1340412865531645,-0.0069813170079773184,0.014660765716752367,9.5042782916666653,-0.59657120833333332,-3.0890947499999997
1403636859006666496,-0.13194689145077129,-0.0013962634015954637,0.019547687622336492,9.3163174999999985,-0.36774937499999999,-3.138128
1403636859011666432,-0.13194689145077129,0.0069813170079773184,0.0307177948351002,9.1528733333333321,-0.52302133333333334,-3.1299557916666663
1403636859016666624,-0.12985249634837812,-0.0048869219055841231,0.037000980142279788,8.9812569583333328,-0.78453200000000001,-3.1871612499999999
1403636859021666560,-0.11868238913561441,-0.0069813170079773184,0.041189770347066175,8.8423294166666651,-0.67829329166666663,-3.1871612499999999
1403636859026666496,-0.10262536001726656,-0.0307177948351002,0.070511301780570912,8.7687795416666656,-0.75184316666666662,-3.1708168333333329
1403636859031666432,-0.087964594300514204,-0.045378560551852569,0.08377580409572781,9.0221180000000007,-0.89894291666666659,-3.3506054166666663
1403636859036666624,-0.07819075048934597,-0.055152404363020817,0.10192722831646883,9.0302902083333318,-0.67829329166666663,-3.3587776250000001
1403636859041666560,-0.067020643276582248,-0.05445427266222308,0.12217304763960307,9.2591120416666666,-0.47398808333333331,-3.2852277500000002
1403636859046666496,-0.062831853071795868,-0.062133721370998138,0.12636183784438945,9.3408341249999989,-0.5475379583333333,-3.3015721666666664
1403636859051666432,-0.067718774977379978,-0.060039326268604934,0.11170107212763709,9.5860003749999994,-0.35140495833333335,-3.3342610000000001
1403636859056666624,-0.068416906678177722,-0.062831853071795868,0.1054178868204575,9.4143839999999983,-0.23699404166666665,-3.1789890416666662
1403636859061666560,-0.07749261878854824,-0.066322511575784518,0.07819075048934597,9.5287949166666657,-0.27785508333333331,-3.2116778749999999
1403636859066666496,-0.090757121103705138,-0.069813170079773182,0.05375614096142535,9.4389006250000005,-0.26151066666666667,-3.1217835833333334
1403636859071666432,-0.10122909661567112,-0.075398223686155036,0.042586033748661642,9.3408341249999989,-0.17161637500000002,-3.1054391666666663
1403636859076666624,-0.099134701513277898,-0.07958701389094143,0.039793506945470715,9.2672842499999994,-0.47398808333333331,-3.0645781249999997
1403636859081666560,-0.094945911308491532,-0.07749261878854824,0.020943951023931952,9.3408341249999989,-0.60474341666666664,-3.1299557916666663
1403636859086666496,-0.085172067497323284,-0.071907565182166372,0.024434609527920613,8.9485681249999995,-0.53936574999999998,-3.0400614999999998
1403636859091666432,-0.08237954069413235,-0.07749261878854824,0.030019663134302467,8.8505016249999997,-0.49850470833333332,-2.9583394166666666
1403636859096666624,-0.076794487087750496,-0.085172067497323284,0.022340214425527419,8.5971631666666664,-0.58839899999999989,-2.9583394166666666
1403636859101666560,-0.076794487087750496,-0.099832833214075656,0.0153588974175501,8.5971631666666664,-0.55571016666666662,-3.0073726666666665
1403636859106666496,-0.066322511575784518,-0.10332349171806432,0.031415926535897934,8.572646541666666,-0.69463770833333327,-3.0645781249999997
1403636859111666432,-0.063529984772593598,-0.10681415022205297,0.032812189937493394,8.6870574583333333,-0.87442629166666663,-3.0972669583333334
1403636859116666624,-0.059341194567807204,-0.10890854532444616,0.048869219055841226,8.5644743333333331,-0.71915433333333334,-3.0564059166666664
1403636859121666560,-0.05445427266222308,-0.1096066770252439,0.075398223686155036,8.7360907083333323,-0.5475379583333333,-2.9910282499999998
1403636859126666496,-0.05375614096142535,-0.114493598930828,0.090757121103705138,8.7851239583333331,-0.57205458333333326,-3.0073726666666665
1403636859131666432,-0.067020643276582248,-0.11728612573401893,0.080983277292536876,9.1283567083333317,-0.40043820833333332,-3.0400614999999998
1403636859136666624,-0.078888882190143686,-0.11170107212763709,0.08377580409572781,9.0793234583333327,-0.392266,-2.9665116249999999
1403636859141666560,-0.087266462599716474,-0.10890854532444616,0.074001960284559576,9.2836286666666652,-0.53119354166666666,-3.0237170833333331
1403636859146666496,-0.088662726001311934,-0.095644043009289262,0.060737457969402671,9.3163174999999985,-0.57205458333333326,-3.0482337083333335
1403636859151666432,-0.090757121103705138,-0.088662726001311934,0.050265482457436693,9.2754564583333323,-0.45764366666666667,-3.0564059166666664
1403636859156666624,-0.090058989402907408,-0.085870199198121014,0.05445427266222308,9.0384624166666665,-0.62108783333333339,-3.1136113750000001
1403636859161666560,-0.087964594300514204,-0.086568330898918744,0.058643062867009467,9.0956678750000002,-0.65377666666666667,-3.1953334583333328
1403636859166666496,-0.076794487087750496,-0.088662726001311934,0.07749261878854824,8.8586738333333326,-0.76001537499999994,-3.1789890416666662
1403636859171666432,-0.057944931166211737,-0.094945911308491532,0.099832833214075656,8.9649125416666671,-0.9398039583333333,-3.2116778749999999
1403636859176666624,-0.041189770347066175,-0.099134701513277898,0.11239920382843484,8.9158792916666663,-1.1522813749999998,-3.2035056666666666
1403636859181666560,-0.023038346126325153,-0.10122909661567112,0.11938052083641214,9.1120122916666659,-0.96432058333333326,-3.2361944999999999
1403636859186666496,-0.012566370614359173,-0.10122909661567112,0.13543754995475996,9.1283567083333317,-0.87442629166666663,-3.1544724166666662
1403636859191666432,-0.0076794487087750501,-0.10890854532444616,0.1361356816555577,9.422556208333333,-0.75184316666666662,-3.2116778749999999
1403636859196666624,-0.0153588974175501,-0.1054178868204575,0.12775810124598494,9.5533115416666661,-0.53936574999999998,-3.162644625
1403636859201666560,-0.028623399732707,-0.10681415022205297,0.12636183784438945,9.7412723333333329,-0.5475379583333333,-3.2035056666666666
1403636859206666496,-0.048171087355043489,-0.10332349171806432,0.10681415022205297,9.9047164999999993,-0.69463770833333327,-3.2116778749999999
1403636859211666432,-0.063529984772593598,-0.094247779607693802,0.088662726001311934,10.109021708333332,-0.5475379583333333,-3.2443667083333327
1403636859216666624,-0.080983277292536876,-0.07958701389094143,0.084473935796525554,10.035471833333334,-0.4903325,-3.2770555416666665
1403636859221666560,-0.099134701513277898,-0.074001960284559576,0.08377580409572781,10.076332875,-0.53119354166666666,-3.366949833333333
1403636859226666496,-0.11938052083641214,-0.064228116473391328,0.076794487087750496,9.9700941666666658,-0.6701210833333332,-3.4323274999999995
1403636859231666432,-0.1291543646475804,-0.057944931166211737,0.085172067497323284,9.872027666666666,-0.68646550000000006,-3.4486719166666666
1403636859236666624,-0.1361356816555577,-0.043284165449459372,0.090757121103705138,9.7249279166666671,-0.83356525000000004,-3.5058773749999999
1403636859241666560,-0.14451326206513049,-0.041189770347066175,0.08307767239493008,9.6922390833333321,-0.83356525000000004,-3.5140495833333332
1403636859246666496,-0.15009831567151233,-0.0307177948351002,0.075398223686155036,9.6350336250000002,-0.66194887499999999,-3.5303939999999998
1403636859251666432,-0.15777776438028737,-0.02583087292951608,0.07609635538695278,9.643205833333333,-0.75184316666666662,-3.6039438749999997
1403636859256666624,-0.16126842288427606,-0.008377580409572781,0.068416906678177722,9.7249279166666671,-0.94797616666666662,-3.6529771249999996
1403636859261666560,-0.16196655458507375,0.0,0.071209433481368656,9.7576167499999986,-0.94797616666666662,-3.6448049166666663
1403636859266666496,-0.15149457907310779,0.0153588974175501,0.084473935796525554,9.733100125,-1.0296982499999998,-3.6121160833333334
1403636859271666432,-0.13962634015954636,0.021642082724729686,0.094945911308491532,9.8475110416666656,-1.0296982499999998,-3.6448049166666663
1403636859276666624,-0.13264502315156904,0.037000980142279788,0.099832833214075656,9.9210609166666668,-0.86625408333333331,-3.7101825833333333
1403636859281666560,-0.1270599695451872,0.044680428851054839,0.1096066770252439,10.141710541666667,-0.72732654166666666,-3.7673880416666665
1403636859286666496,-0.1228711793404008,0.057246799465414,0.10053096491487339,10.321499124999999,-0.67829329166666663,-3.7673880416666665
1403636859291666432,-0.12356931104119852,0.061435589670200401,0.07819075048934597,10.354187958333334,-0.60474341666666664,-3.702010375
1403636859296666624,-0.1270599695451872,0.071209433481368656,0.055850536063818547,10.378704583333333,-0.46581587499999999,-3.6039438749999997
1403636859301666560,-0.13124875974997358,0.068416906678177722,0.032114058236695664,10.321499124999999,-0.50667691666666659,-3.5630828333333331
1403636859306666496,-0.14451326206513049,0.07609635538695278,0.0048869219055841231,10.370532375,-0.49850470833333332,-3.5058773749999999
1403636859311666432,-0.15707963267948966,0.080983277292536876,-0.013962634015954637,10.215260416666666,-0.51484912499999991,-3.5385662083333331
1403636859316666624,-0.15917402778188286,0.087964594300514204,-0.02583087292951608,10.109021708333332,-0.63743225000000003,-3.4895329583333332
1403636859321666560,-0.15917402778188286,0.089360857702109678,-0.037000980142279788,9.9700941666666658,-0.73549874999999998,-3.4731885416666666
1403636859326666496,-0.15777776438028737,0.10122909661567112,-0.041189770347066175,9.9210609166666668,-0.69463770833333327,-3.5058773749999999
1403636859331666432,-0.15847589608108512,0.1054178868204575,-0.031415926535897934,9.8475110416666656,-0.79270420833333322,-3.5385662083333331
1403636859336666624,-0.15987215948268058,0.1054178868204575,-0.031415926535897934,9.822994416666667,-0.86625408333333331,-3.5630828333333331
1403636859341666560,-0.15428710587629874,0.098436569812480182,-0.021642082724729686,9.7739611666666661,-0.89077070833333327,-3.4895329583333332
1403636859346666496,-0.14521139376592823,0.096342174710086978,-0.0048869219055841231,9.9210609166666668,-0.91528733333333334,-3.5058773749999999
1403636859351666432,-0.13543754995475996,0.090058989402907408,0.013962634015954637,9.9864385833333333,-0.96432058333333326,-3.4486719166666666
1403636859356666624,-0.12217304763960307,0.092851516206098328,0.031415926535897934,10.24794925,-0.80087641666666665,-3.4241552916666667
1403636859361666560,-0.10821041362364843,0.093549647906896058,0.056548667764616284,10.231604833333332,-0.76001537499999994,-3.2770555416666665
1403636859366666496,-0.099832833214075656,0.096342174710086978,0.074700091985357306,10.476771083333333,-0.65377666666666667,-3.2933999583333331
1403636859371666432,-0.10053096491487339,0.099134701513277898,0.08237954069413235,10.501287708333333,-0.50667691666666659,-3.2116778749999999
1403636859376666624,-0.10262536001726656,0.10122909661567112,0.07819075048934597,10.632043041666666,-0.25333845833333329,-3.2361944999999999
1403636859381666560,-0.11588986233242347,0.097040306410884708,0.063529984772593598,10.566665374999998,-0.25333845833333329,-3.2361944999999999
1403636859386666496,-0.13264502315156904,0.091455252804502868,0.037699111843077518,10.583009791666665,-0.17161637500000002,-3.2116778749999999
1403636859391666432,-0.13962634015954636,0.085172067497323284,0.02652900463031381,10.231604833333332,-0.23699404166666665,-3.1463002083333333
1403636859396666624,-0.14730578886832138,0.071209433481368656,0.01117010721276371,10.133538333333334,-0.35140495833333335,-3.1217835833333334
1403636859401666560,-0.15149457907310779,0.057944931166211737,0.0062831853071795866,9.8883720833333317,-0.46581587499999999,-3.0809225416666663
1403636859406666496,-0.14521139376592823,0.045378560551852569,0.01117010721276371,9.9210609166666668,-0.49850470833333332,-3.1789890416666662
1403636859411666432,-0.13334315485236678,0.039793506945470715,0.029321531433504733,9.822994416666667,-0.72732654166666666,-3.2361944999999999
1403636859416666624,-0.114493598930828,0.02722713633111154,0.047472955654245766,9.822994416666667,-0.80087641666666665,-3.3015721666666664
1403636859421666560,-0.088662726001311934,0.016057029118347832,0.070511301780570912,9.6758946666666663,-0.80087641666666665,-3.2933999583333331
1403636859426666496,-0.071209433481368656,-0.008377580409572781,0.10053096491487339,9.7739611666666661,-0.66194887499999999,-3.342433208333333
1403636859431666432,-0.058643062867009467,-0.021642082724729686,0.11519173063162574,9.822994416666667,-0.61291562499999996,-3.4159830833333329
1403636859436666624,-0.052359877559829883,-0.038397243543875248,0.11938052083641214,9.994610791666668,-0.48216029166666663,-3.4895329583333332
1403636859441666560,-0.050265482457436693,-0.046076692252650306,0.1228711793404008,10.051816249999998,-0.41678262500000002,-3.4895329583333332
1403636859446666496,-0.055850536063818547,-0.060039326268604934,0.11519173063162574,10.239777041666667,-0.40861041666666664,-3.4895329583333332
1403636859451666432,-0.062133721370998138,-0.067020643276582248,0.10332349171806432,10.272465875,-0.29419949999999995,-3.4813607499999994
1403636859456666624,-0.064926248174189058,-0.085172067497323284,0.098436569812480182,10.370532375,-0.23699404166666665,-3.4486719166666666
1403636859461666560,-0.074001960284559576,-0.090757121103705138,0.086568330898918744,10.378704583333333,-0.25333845833333329,-3.3996386666666667
1403636859466666496,-0.08377580409572781,-0.10053096491487339,0.072605696882964116,10.313326916666666,-0.25333845833333329,-3.3015721666666664
1403636859471666432,-0.092851516206098328,-0.10821041362364843,0.055850536063818547,10.215260416666666,-0.25333845833333329,-3.2198500833333328
1403636859476666624,-0.099134701513277898,-0.114493598930828,0.047472955654245766,10.059988458333333,-0.29419949999999995,-3.1789890416666662
1403636859481666560,-0.099832833214075656,-0.12077678423800758,0.043284165449459372,9.8475110416666656,-0.31871612500000002,-3.1217835833333334
1403636859486666496,-0.097738438111682452,-0.12566370614359174,0.046076692252650306,9.7739611666666661,-0.3350605416666666,-3.0727503333333335
1403636859491666432,-0.096342174710086978,-0.12426744274199628,0.048869219055841226,9.6513780416666659,-0.29419949999999995,-3.0645781249999997
1403636859496666624,-0.095644043009289262,-0.12775810124598494,0.048171087355043489,9.5614837499999989,-0.28602729166666663,-3.0400614999999998
1403636859501666560,-0.096342174710086978,-0.1291543646475804,0.042586033748661642,9.5614837499999989,-0.28602729166666663,-3.0809225416666663
1403636859506666496,-0.10192722831646883,-0.1291543646475804,0.038397243543875248,9.6268614166666655,-0.3350605416666666,-3.1789890416666662
1403636859511666432,-0.1054178868204575,-0.12636183784438945,0.02583087292951608,9.7984777916666665,-0.40861041666666664,-3.2933999583333331
1403636859516666624,-0.1054178868204575,-0.12636183784438945,0.02652900463031381,9.822994416666667,-0.46581587499999999,-3.3179165833333331
1403636859521666560,-0.11100294042683936,-0.12566370614359174,0.023038346126325153,9.9374053333333343,-0.41678262500000002,-3.3506054166666663
1403636859526666496,-0.114493598930828,-0.12566370614359174,0.031415926535897934,9.9700941666666658,-0.47398808333333331,-3.3506054166666663
1403636859531666432,-0.11938052083641214,-0.12007865253720987,0.035604716740684328,10.2969825,-0.41678262500000002,-3.4078108749999996
1403636859536666624,-0.12566370614359174,-0.11030480872604163,0.040491638646268438,10.378704583333333,-0.35957716666666667,-3.4486719166666666
1403636859541666560,-0.143116998663535,-0.092851516206098328,0.02722713633111154,10.468598874999998,-0.3350605416666666,-3.4731885416666666
1403636859546666496,-0.15289084247470325,-0.075398223686155036,0.014660765716752367,10.231604833333332,-0.35957716666666667,-3.3996386666666667
1403636859551666432,-0.16824973989225336,-0.055152404363020817,0.0027925268031909274,10.068160666666666,-0.26968287499999999,-3.3587776250000001
1403636859556666624,-0.17872171540421936,-0.046774823953448029,-0.008377580409572781,9.7167557083333325,-0.35957716666666667,-3.2035056666666666
1403636859561666560,-0.18919369091618532,-0.032812189937493394,-0.020245819323134219,9.5614837499999989,-0.34323275000000003,-3.162644625
1403636859566666496,-0.19338248112097173,-0.023736477827122883,-0.018849555921538759,9.2509398333333337,-0.38409379166666668,-3.1136113750000001
1403636859571666432,-0.19408061282176942,-0.020245819323134219,-0.013264502315156905,9.2345954166666662,-0.34323275000000003,-3.1544724166666662
1403636859576666624,-0.18989182261698306,-0.0076794487087750501,-0.0041887902047863905,9.0302902083333318,-0.36774937499999999,-3.1789890416666662
1403636859581666560,-0.1884955592153876,0.0041887902047863905,0.0041887902047863905,9.0874956666666655,-0.26151066666666667,-3.2280222916666665
1403636859586666496,-0.19477874452256716,0.013962634015954637,0.0062831853071795866,9.0548068333333322,-0.29419949999999995,-3.2361944999999999
1403636859591666432,-0.20176006153054449,0.019547687622336492,-0.0013962634015954637,9.242767624999999,-0.28602729166666663,-3.2933999583333331
1403636859596666624,-0.2059488517353309,0.024434609527920613,-0.0062831853071795866,9.2672842499999994,-0.32688833333333334,-3.3097443750000002
1403636859601666560,-0.21223203704251048,0.032812189937493394,-0.0153588974175501,9.5287949166666657,-0.31871612500000002,-3.4404997083333333
1403636859606666496,-0.2150245638457014,0.045378560551852569,-0.021642082724729686,9.643205833333333,-0.35957716666666667,-3.4650163333333333
1403636859611666432,-0.21642082724729686,0.057944931166211737,-0.02722713633111154,9.7657889583333333,-0.41678262500000002,-3.5957716666666664
1403636859616666624,-0.21711895894809458,0.074001960284559576,-0.023736477827122883,9.7739611666666661,-0.45764366666666667,-3.6611493333333334
1403636859621666560,-0.2150245638457014,0.090757121103705138,-0.024434609527920613,9.7903055833333319,-0.51484912499999991,-3.6693215416666662
1403636859626666496,-0.21223203704251048,0.11100294042683936,-0.02583087292951608,9.6922390833333321,-0.51484912499999991,-3.6366327083333334
1403636859631666432,-0.21013764194011728,0.12147491593880534,-0.020245819323134219,9.6105169999999998,-0.51484912499999991,-3.5549106249999998
1403636859636666624,-0.20176006153054449,0.12845623294678266,-0.011868238913561441,9.4062117916666654,-0.55571016666666662,-3.4241552916666667
1403636859641666560,-0.1982694030265558,0.13683381335635544,-0.0041887902047863905,9.3816951666666668,-0.53936574999999998,-3.4323274999999995
1403636859646666496,-0.18500490071139891,0.15149457907310779,0.0090757121103705145,9.242767624999999,-0.60474341666666664,-3.3587776250000001
1403636859651666432,-0.16755160819145562,0.16824973989225336,0.027925268031909273,9.1855621666666654,-0.60474341666666664,-3.3260887916666664
1403636859656666624,-0.15358897417550099,0.18570303241219666,0.046774823953448029,9.0466346249999994,-0.60474341666666664,-3.2116778749999999
1403636859661666560,-0.143116998663535,0.19477874452256716,0.057246799465414,9.0139457916666661,-0.50667691666666659,-3.1463002083333333
1403636859666666496,-0.13543754995475996,0.20804324683772407,0.069813170079773182,8.9812569583333328,-0.4903325,-3.1789890416666662
1403636859671666432,-0.12356931104119852,0.21642082724729686,0.076794487087750496,9.0221180000000007,-0.4494714583333333,-3.2770555416666665
1403636859676666624,-0.1228711793404008,0.2241002759560719,0.08237954069413235,9.1201845000000006,-0.392266,-3.3179165833333331
1403636859681666560,-0.11798425743481668,0.23108159296404923,0.08307767239493008,9.1447011249999992,-0.29419949999999995,-3.3751220416666667
1403636859686666496,-0.12426744274199628,0.23736477827122882,0.071209433481368656,9.2591120416666666,-0.13892754166666665,-3.3832942499999996
1403636859691666432,-0.13334315485236678,0.23317598806644241,0.056548667764616284,9.3408341249999989,0.024516625,-3.3587776250000001
1403636859696666624,-0.143116998663535,0.23387411976724018,0.028623399732707,9.5042782916666653,0.13075533333333333,-3.3914664583333329
1403636859701666560,-0.15847589608108512,0.23596851486963336,0.017453292519943295,9.5533115416666661,0.10623870833333333,-3.4159830833333329
1403636859706666496,-0.16894787159305111,0.24504422698000386,-0.0020943951023931952,9.6513780416666659,0.089894291666666667,-3.4241552916666667
1403636859711666432,-0.1668534764906579,0.24993114888558801,-0.0097738438111682462,9.4879338749999995,-0.016344416666666667,-3.3342610000000001
1403636859716666624,-0.16545721308906244,0.25761059759436306,-0.019547687622336492,9.3980395833333326,-0.057205458333333334,-3.3097443750000002
1403636859721666560,-0.16406094968746698,0.26179938779914941,-0.018849555921538759,9.1692177499999996,-0.073549874999999987,-3.2443667083333327
1403636859726666496,-0.15987215948268058,0.2673844414055313,-0.022340214425527419,9.0956678750000002,-0.073549874999999987,-3.2852277500000002
1403636859731666432,-0.15428710587629874,0.26878070480712674,-0.018849555921538759,8.8586738333333326,-0.17978858333333333,-3.1789890416666662
1403636859736666624,-0.14381513036433274,0.2722713633111154,-0.016755160819145562,8.7851239583333331,-0.21247741666666667,-3.138128
1403636859741666560,-0.13543754995475996,0.26808257310632899,-0.010471975511965976,8.5072688749999994,-0.31871612500000002,-3.0073726666666665
1403636859746666496,-0.1291543646475804,0.26668630970473356,-0.0069813170079773184,8.5889909583333335,-0.31871612500000002,-3.1544724166666662
1403636859751666432,-0.11728612573401893,0.26808257310632899,0.0034906585039886592,8.5481299166666673,-0.3105439166666667,-3.2035056666666666
1403636859756666624,-0.12077678423800758,0.26459191460234038,0.0020943951023931952,8.7197462916666666,-0.22064962499999999,-3.3097443750000002
1403636859761666560,-0.12496557444279401,0.2583087292951608,0.00069813170079773186,8.7115740833333319,-0.18796079166666665,-3.3342610000000001
1403636859766666496,-0.1340412865531645,0.25411993909037439,-0.013962634015954637,8.8995348749999987,-0.081722083333333334,-3.342433208333333
1403636859771666432,-0.14660765716752369,0.2457423586808016,-0.02652900463031381,8.8750182500000001,-0.040861041666666667,-3.3260887916666664
1403636859776666624,-0.15847589608108512,0.22689280275926282,-0.045378560551852569,9.1447011249999992,0.024516625,-3.2852277500000002
1403636859781666560,-0.17383479349863523,0.21851522234969004,-0.069813170079773182,9.2509398333333337,0.032688833333333334,-3.3260887916666664
1403636859786666496,-0.18500490071139891,0.20943951023931953,-0.080983277292536876,9.5206227083333328,0.089894291666666667,-3.3097443750000002
1403636859791666432,-0.18779742751458986,0.20734511513692636,-0.087266462599716474,9.471589458333332,0.040861041666666667,-3.2198500833333328
1403636859796666624,-0.1884955592153876,0.19966566642815131,-0.094247779607693802,9.471589458333332,0.024516625,-3.1871612499999999
1403636859801666560,-0.18919369091618532,0.20315632493213995,-0.093549647906896058,9.193734375,0.057205458333333334,-3.0890947499999997
1403636859806666496,-0.18430676901060122,0.20176006153054449,-0.085870199198121014,9.0466346249999994,0.065377666666666667,-3.0809225416666663
1403636859811666432,-0.18011797880581482,0.1982694030265558,-0.08237954069413235,8.744262916666667,-0.016344416666666667,-2.9828560416666661
1403636859816666624,-0.17872171540421936,0.19058995431778078,-0.086568330898918744,8.5399577083333327,-0.04903325,-2.9583394166666666
1403636859821666560,-0.17104226669544431,0.18430676901060122,-0.085870199198121014,8.3029636666666669,-0.14709974999999997,-2.9665116249999999
1403636859826666496,-0.16057029118347829,0.17732545200262387,-0.07958701389094143,8.3274802916666655,-0.28602729166666663,-3.0890947499999997
1403636859831666432,-0.14381513036433274,0.17872171540421936,-0.067718774977379978,8.2457582083333332,-0.3105439166666667,-3.1708168333333329
1403636859836666624,-0.1291543646475804,0.17523105690023066,-0.049567350756638949,8.2866192499999993,-0.31871612500000002,-3.2198500833333328
1403636859841666560,-0.11868238913561441,0.17034413499464657,-0.039793506945470715,8.3519969166666659,-0.27785508333333331,-3.2688833333333331
1403636859846666496,-0.1096066770252439,0.15917402778188286,-0.016755160819145562,8.4418912083333328,-0.25333845833333329,-3.2443667083333327
1403636859851666432,-0.10053096491487339,0.15009831567151233,-0.0055850536063818549,8.6625408333333329,-0.18796079166666665,-3.2770555416666665
1403636859856666624,-0.096342174710086978,0.13543754995475996,0.0062831853071795866,8.8586738333333326,-0.098066500000000001,-3.2116778749999999
1403636859861666560,-0.094945911308491532,0.12845623294678266,0.008377580409572781,8.9976013749999986,-0.024516625,-3.2525389166666665
1403636859866666496,-0.087964594300514204,0.12077678423800758,0.011868238913561441,9.1528733333333321,0.057205458333333334,-3.2116778749999999
1403636859871666432,-0.085172067497323284,0.12077678423800758,0.0055850536063818549,9.1692177499999996,0.10623870833333333,-3.1871612499999999
1403636859876666624,-0.08377580409572781,0.11519173063162574,0.010471975511965976,9.0874956666666655,0.065377666666666667,-3.0890947499999997
1403636859881666560,-0.08237954069413235,0.11938052083641214,0.010471975511965976,8.9158792916666663,0.18796079166666665,-3.0318892916666664
1403636859886666496,-0.080983277292536876,0.11309733552923257,0.014660765716752367,8.6298519999999996,0.14709974999999997,-2.9746838333333332
1403636859891666432,-0.075398223686155036,0.1075122819228507,0.010471975511965976,8.5971631666666664,0.17978858333333333,-2.9501672083333332
1403636859896666624,-0.073303828583761846,0.10053096491487339,0.017453292519943295,8.3111358749999997,0.16344416666666667,-2.9011339583333333
1403636859901666560,-0.071907565182166372,0.093549647906896058,0.023038346126325153,8.2294137916666656,0.21247741666666667,-2.8847895416666667
1403636859906666496,-0.071209433481368656,0.088662726001311934,0.034208453339088861,8.1150028750000001,0.089894291666666667,-2.852100708333333
1403636859911666432,-0.064926248174189058,0.087266462599716474,0.045378560551852569,8.1395194999999987,0.098066500000000001,-2.7948952499999997
1403636859916666624,-0.057944931166211737,0.08377580409572781,0.057246799465414,8.0577974166666664,0.13075533333333333,-2.7376897916666665
1403636859921666560,-0.055850536063818547,0.090058989402907408,0.064228116473391328,8.1885527499999995,0.24516625,-2.803067458333333
1403636859926666496,-0.052359877559829883,0.089360857702109678,0.07609635538695278,8.1068306666666654,0.26151066666666667,-2.7867230416666664
1403636859931666432,-0.05445427266222308,0.094945911308491532,0.07958701389094143,8.1150028750000001,0.35957716666666667,-2.7458620000000002
1403636859936666624,-0.05305800926062762,0.087266462599716474,0.085870199198121014,7.8371477916666663,0.41678262500000002,-2.6477955
1403636859941666560,-0.052359877559829883,0.08307767239493008,0.092851516206098328,7.8861810416666662,0.52302133333333334,-2.6804843333333328
1403636859946666496,-0.055850536063818547,0.080285145591739146,0.097738438111682452,7.7145646666666661,0.46581587499999999,-2.6641399166666666
1403636859951666432,-0.063529984772593598,0.071209433481368656,0.097738438111682452,7.7717701249999998,0.55571016666666662,-2.6886565416666666
1403636859956666624,-0.065624379874986788,0.068416906678177722,0.099134701513277898,7.6573592083333333,0.47398808333333331,-2.5742456250000001
1403636859961666560,-0.069115038378975438,0.062133721370998138,0.10402162341886204,7.5919815416666658,0.55571016666666662,-2.5252123749999997
1403636859966666496,-0.069813170079773182,0.05445427266222308,0.099832833214075656,7.4285373749999994,0.52302133333333334,-2.4516624999999999
1403636859971666432,-0.073303828583761846,0.043982297150257102,0.085870199198121014,7.5756371249999992,0.58022679166666657,-2.4189736666666666
1403636859976666624,-0.072605696882964116,0.037000980142279788,0.071209433481368656,7.4285373749999994,0.58839899999999989,-2.3290793749999996
1403636859981666560,-0.069813170079773182,0.023736477827122883,0.05305800926062762,7.493915041666666,0.59657120833333332,-2.2718739166666664
1403636859986666496,-0.074700091985357306,0.017453292519943295,0.046076692252650306,7.4121929583333328,0.53936574999999998,-2.1492907916666666
1403636859991666432,-0.075398223686155036,0.0013962634015954637,0.040491638646268438,7.4530539999999998,0.63743225000000003,-2.1574629999999999
1403636859996666624,-0.080983277292536876,0.0027925268031909274,0.042586033748661642,7.4040207499999999,0.59657120833333332,-2.0675687083333334
1403636860001666560,-0.08168140899333462,-0.0076794487087750501,0.050265482457436693,7.4203651666666666,0.46581587499999999,-1.9449855833333332
1403636860006666496,-0.085172067497323284,-0.0097738438111682462,0.052359877559829883,7.3304708750000005,0.34323275000000003,-1.9204689583333332
1403636860011666432,-0.080285145591739146,-0.0153588974175501,0.058643062867009467,7.2242321666666669,0.30237170833333332,-1.9122967499999999
1403636860016666624,-0.075398223686155036,-0.011868238913561441,0.071209433481368656,7.0199269583333326,0.30237170833333332,-1.9122967499999999
1403636860021666560,-0.069813170079773182,-0.014660765716752367,0.078888882190143686,6.8809994166666666,0.41678262500000002,-1.8959523333333332
1403636860026666496,-0.07749261878854824,-0.0153588974175501,0.085870199198121014,6.6440053749999999,0.45764366666666667,-1.9286411666666665
1403636860031666432,-0.080285145591739146,-0.02583087292951608,0.095644043009289262,6.4723889999999997,0.51484912499999991,-1.9204689583333332
1403636860036666624,-0.084473935796525554,-0.028623399732707,0.099832833214075656,6.3579780833333324,0.56388237500000005,-1.9286411666666665
1403636860041666560,-0.089360857702109678,-0.039095375244672985,0.11100294042683936,6.1455006666666669,0.63743225000000003,-1.838746875
1403636860046666496,-0.098436569812480182,-0.050265482457436693,0.11030480872604163,6.1536728749999989,0.65377666666666667,-1.8714357083333331
1403636860051666432,-0.10471975511965977,-0.057944931166211737,0.11030480872604163,6.1373284583333332,0.4903325,-1.9041245416666663
1403636860056666624,-0.11030480872604163,-0.061435589670200401,0.11519173063162574,6.2108783333333326,0.44129924999999998,-1.9368133750000001
1403636860061666560,-0.10611601852125524,-0.062133721370998138,0.13124875974997358,6.1455006666666669,0.31871612500000002,-1.9286411666666665
1403636860066666496,-0.094247779607693802,-0.063529984772593598,0.14800392056911915,6.1291562499999994,0.20430520833333332,-1.838746875
1403636860071666432,-0.080285145591739146,-0.067718774977379978,0.16406094968746698,6.0719507916666657,0.098066500000000001,-1.7978858333333332
1403636860076666624,-0.064926248174189058,-0.071209433481368656,0.17872171540421936,6.1536728749999989,0.081722083333333334,-1.838746875
1403636860081666560,-0.050963614158234416,-0.078888882190143686,0.18919369091618532,6.2027061249999988,0.0081722083333333334,-1.8060580416666667
1403636860086666496,-0.037699111843077518,-0.08237954069413235,0.18500490071139891,6.3579780833333324,0.122583125,-1.8877801249999999
1403636860091666432,-0.029321531433504733,-0.080983277292536876,0.17592918860102841,6.235394958333333,0.196133,-1.8877801249999999
1403636860096666624,-0.028623399732707,-0.084473935796525554,0.15707963267948966,6.3661502916666661,0.3105439166666667,-1.8959523333333332
1403636860101666560,-0.034906585039886591,-0.090058989402907408,0.14032447186034408,6.2762560000000001,0.3105439166666667,-1.9122967499999999
1403636860106666496,-0.034906585039886591,-0.093549647906896058,0.1270599695451872,6.3498058749999995,0.36774937499999999,-1.9286411666666665
1403636860111666432,-0.032114058236695664,-0.098436569812480182,0.12566370614359174,6.1863617083333331,0.27785508333333331,-1.8632635
1403636860116666624,-0.027925268031909273,-0.1054178868204575,0.12845623294678266,6.2517393749999988,0.196133,-1.9368133750000001
1403636860121666560,-0.020245819323134219,-0.10681415022205297,0.13892820845874865,6.1373284583333332,0.11441091666666667,-1.9204689583333332
1403636860126666496,-0.012566370614359173,-0.10821041362364843,0.14241886696273731,6.2108783333333326,0.122583125,-1.985846625
1403636860131666432,-0.0062831853071795866,-0.10681415022205297,0.14381513036433274,6.0719507916666657,0.11441091666666667,-2.0757409166666667
1403636860136666624,-0.0076794487087750501,-0.11030480872604163,0.13962634015954636,6.1046396249999999,0.25333845833333329,-2.132946375
1403636860141666560,-0.0097738438111682462,-0.10821041362364843,0.1361356816555577,5.9657120833333321,0.23699404166666665,-2.1819796249999999
1403636860146666496,-0.016057029118347832,-0.11588986233242347,0.13334315485236678,5.9411954583333326,0.26968287499999999,-2.2473572916666664
1403636860151666432,-0.022340214425527419,-0.11728612573401893,0.13334315485236678,5.8104401249999995,0.17978858333333333,-2.2310128749999998
1403636860156666624,-0.020245819323134219,-0.12775810124598494,0.13683381335635544,5.8267845416666662,0.122583125,-2.2146684583333331
1403636860161666560,-0.021642082724729686,-0.13543754995475996,0.12845623294678266,5.834956749999999,0.016344416666666667,-2.2473572916666664
1403636860166666496,-0.018849555921538759,-0.14172073526193954,0.12147491593880534,5.9575398750000002,-0.057205458333333334,-2.3127349583333334
1403636860171666432,-0.013264502315156905,-0.14381513036433274,0.12077678423800758,6.0719507916666657,-0.13075533333333333,-2.3862848333333333
1403636860176666624,-0.0034906585039886592,-0.14381513036433274,0.12496557444279401,6.2108783333333326,-0.196133,-2.4353180833333332
1403636860181666560,0.0020943951023931952,-0.14800392056911915,0.1270599695451872,6.235394958333333,-0.27785508333333331,-2.4353180833333332
1403636860186666496,0.020943951023931952,-0.16057029118347829,0.13962634015954636,6.3906669166666656,-0.31871612500000002,-2.4598347083333332
1403636860191666432,0.038397243543875248,-0.16126842288427606,0.15009831567151233,6.5786277083333324,-0.36774937499999999,-2.5252123749999997
1403636860196666624,0.048171087355043489,-0.17313666179783749,0.15847589608108512,6.7911051249999996,-0.31871612500000002,-2.557901208333333
1403636860201666560,0.060039326268604934,-0.17592918860102841,0.1668534764906579,6.913688249999999,-0.3350605416666666,-2.5497290000000001
1403636860206666496,0.071907565182166372,-0.18500490071139891,0.17802358370342161,6.9300326666666665,-0.3350605416666666,-2.4925235416666665
1403636860211666432,0.074700091985357306,-0.19198621771937624,0.18151424220741028,7.1261656666666662,-0.25333845833333329,-2.5333845833333335
1403636860216666624,0.080285145591739146,-0.19896753472735357,0.18779742751458986,7.1098212499999995,-0.196133,-2.5905900416666663
1403636860221666560,0.074700091985357306,-0.19058995431778078,0.19198621771937624,7.2078877499999994,-0.10623870833333333,-2.6723121249999999
1403636860226666496,0.070511301780570912,-0.19198621771937624,0.19757127132575814,6.954549291666666,-0.17978858333333333,-2.6477955
1403636860231666432,0.068416906678177722,-0.19896753472735357,0.18989182261698306,6.8973438333333332,-0.23699404166666665,-2.623278875
1403636860236666624,0.063529984772593598,-0.21223203704251048,0.18360863730980345,6.733899666666666,-0.28602729166666663,-2.582417833333333
1403636860241666560,0.063529984772593598,-0.228987197861656,0.18011797880581482,6.8646549999999991,-0.20430520833333332,-2.6559677083333328
1403636860246666496,0.061435589670200401,-0.24294983187761068,0.18081611050661253,6.8564827916666671,-0.20430520833333332,-2.7050009583333332
1403636860251666432,0.060737457969402671,-0.25481807079117208,0.18151424220741028,7.1833711249999999,-0.14709974999999997,-2.7131731666666665
1403636860256666624,0.060737457969402671,-0.26947883650792448,0.18570303241219666,7.2896098333333326,-0.16344416666666667,-2.7540342083333331
1403636860261666560,0.060039326268604934,-0.27576202181510412,0.1884955592153876,7.583809333333333,-0.073549874999999987,-2.7376897916666665
1403636860266666496,0.061435589670200401,-0.2869321290278678,0.1954768762233649,7.7390812916666665,-0.024516625,-2.7295175833333332
1403636860271666432,0.070511301780570912,-0.29251718263424964,0.1982694030265558,8.1476917083333333,0.089894291666666667,-2.8439284999999996
1403636860276666624,0.070511301780570912,-0.29251718263424964,0.20664698343612864,8.1803805416666648,0.18796079166666665,-2.9338227916666666
1403636860281666560,0.061435589670200401,-0.29740410453983374,0.20664698343612864,8.4664078333333332,0.31871612500000002,-3.1217835833333334
1403636860286666496,0.050963614158234416,-0.29670597283903599,0.20385445663293766,8.3765135416666663,0.26968287499999999,-3.1953334583333328
1403636860291666432,0.033510321638291124,-0.30508355324860881,0.1982694030265558,8.4418912083333328,0.22882183333333334,-3.2770555416666665
1403636860296666624,0.0153588974175501,-0.31555552876057474,0.19477874452256716,8.2375859999999985,0.14709974999999997,-3.3506054166666663
1403636860301666560,0.0090757121103705145,-0.3302162944773272,0.18919369091618532,8.2621026249999989,0.040861041666666667,-3.3506054166666663
1403636860306666496,0.0013962634015954637,-0.34627332359567498,0.17802358370342161,8.1722083333333337,-0.073549874999999987,-3.3587776250000001
1403636860311666432,-0.0076794487087750501,-0.36163222101322506,0.16824973989225336,8.3029636666666669,-0.081722083333333334,-3.4159830833333329
1403636860316666624,-0.013264502315156905,-0.36512287951721373,0.1556833692778942,8.2375859999999985,-0.13892754166666665,-3.3751220416666667
1403636860321666560,-0.011868238913561441,-0.37908551353316833,0.15219271077390556,8.2866192499999993,-0.21247741666666667,-3.366949833333333
1403636860326666496,-0.013962634015954637,-0.38327430373795479,0.15219271077390556,8.2947914583333322,-0.26151066666666667,-3.3260887916666664
1403636860331666432,-0.0090757121103705145,-0.39584067435231396,0.15638150097869194,8.3846857499999992,-0.26968287499999999,-3.2607111249999998
1403636860336666624,-0.0013962634015954637,-0.39933133285630262,0.15987215948268058,8.4909244583333336,-0.25333845833333329,-3.2443667083333327
1403636860341666560,0.0013962634015954637,-0.41119957176986405,0.16824973989225336,8.6298519999999996,-0.17161637500000002,-3.2933999583333331
1403636860346666496,0.0062831853071795866,-0.4153883619746504,0.17383479349863523,8.6707130416666658,-0.098066500000000001,-3.3506054166666663
1403636860351666432,0.0034906585039886592,-0.42516220578581865,0.18291050560900574,8.8259849999999993,-0.04903325,-3.4241552916666667
1403636860356666624,-0.0020943951023931952,-0.42306781068342542,0.19128808601857852,8.9077070833333334,0.0,-3.5630828333333331
1403636860361666560,-0.0062831853071795866,-0.43144539109299829,0.20804324683772407,8.9649125416666671,-0.089894291666666667,-3.67749375
1403636860366666496,-0.01117010721276371,-0.4300491276914028,0.20664698343612864,9.0302902083333318,-0.122583125,-3.7755602499999998
1403636860371666432,-0.013264502315156905,-0.43493604959698695,0.20874137853852182,8.9894291666666657,-0.21247741666666667,-3.8491101249999997
1403636860376666624,-0.013962634015954637,-0.43633231299858238,0.20525072003453312,9.0793234583333327,-0.14709974999999997,-4.0043820833333328
1403636860381666560,-0.013264502315156905,-0.43493604959698695,0.20036379812894903,8.9567403333333324,-0.18796079166666665,-4.0125542916666666
1403636860386666496,-0.017453292519943295,-0.43982297150257099,0.18779742751458986,9.0466346249999994,-0.16344416666666667,-4.0942763749999997
1403636860391666432,-0.023736477827122883,-0.44121923490416654,0.17802358370342161,9.0057735833333332,-0.15527195833333335,-4.126965208333333
1403636860396666624,-0.034208453339088861,-0.44331363000655966,0.16126842288427606,9.1038400833333331,-0.17161637500000002,-4.1514818333333334
1403636860401666560,-0.041887902047863905,-0.44121923490416654,0.14870205226991687,8.9812569583333328,-0.21247741666666667,-4.0861041666666669
1403636860406666496,-0.044680428851054839,-0.44191736660496422,0.13683381335635544,9.1201845000000006,-0.196133,-4.0452431249999998
1403636860411666432,-0.041887902047863905,-0.44331363000655966,0.13683381335635544,9.0302902083333318,-0.20430520833333332,-3.9308322083333329
1403636860416666624,-0.039095375244672985,-0.44401176170735746,0.14730578886832138,9.1610455416666667,-0.17161637500000002,-3.881798958333333
1403636860421666560,-0.038397243543875248,-0.44750242021134612,0.15777776438028737,9.1365289166666663,-0.27785508333333331,-3.8327657083333331
1403636860426666496,-0.027925268031909273,-0.457974395723312,0.16824973989225336,9.3490063333333335,-0.34323275000000003,-3.7919046666666665
1403636860431666432,-0.01117010721276371,-0.45518186892012108,0.18151424220741028,9.3735229583333322,-0.44129924999999998,-3.7428714166666661
1403636860436666624,0.0027925268031909274,-0.45867252742410985,0.19198621771937624,9.5451393333333332,-0.44129924999999998,-3.7673880416666665
1403636860441666560,0.020245819323134219,-0.45448373721932339,0.2059488517353309,9.5778281666666665,-0.35957716666666667,-3.8327657083333331
1403636860446666496,0.023736477827122883,-0.45308747381772796,0.21153390534171271,9.7249279166666671,-0.18796079166666665,-3.9962098749999995
1403636860451666432,0.023038346126325153,-0.44401176170735746,0.21153390534171271,9.6023447916666651,-0.11441091666666667,-4.1024485833333335
1403636860456666624,0.016755160819145562,-0.44191736660496422,0.20664698343612864,9.6595502499999988,-0.057205458333333334,-4.2577205416666661
1403636860461666560,0.012566370614359173,-0.44540802510895289,0.20036379812894903,9.5124504999999999,-0.098066500000000001,-4.396648083333333
1403636860466666496,0.0076794487087750501,-0.45308747381772796,0.19617500792416265,9.5206227083333328,-0.17978858333333333,-4.5110590000000004
1403636860471666432,0.0069813170079773184,-0.45099307871533473,0.19687313962496036,9.5451393333333332,-0.25333845833333329,-4.6172977083333331
1403636860476666624,0.0062831853071795866,-0.45518186892012108,0.19058995431778078,9.6350336250000002,-0.32688833333333334,-4.6499865416666664
1403636860481666560,0.017453292519943295,-0.45169121041613247,0.19128808601857852,9.733100125,-0.43312704166666666,-4.7398808333333333
1403636860486666496,0.029321531433504733,-0.44959681531373935,0.19966566642815131,9.872027666666666,-0.49850470833333332,-4.7153642083333329
1403636860491666432,0.041189770347066175,-0.44121923490416654,0.20734511513692636,9.9782663750000005,-0.53936574999999998,-4.7153642083333329
1403636860496666624,0.056548667764616284,-0.43493604959698695,0.21711895894809458,10.084505083333333,-0.58022679166666657,-4.6745031666666668
1403636860501666560,0.069115038378975438,-0.4209734155810323,0.21642082724729686,10.288810291666666,-0.64560445833333324,-4.6254699166666668
1403636860506666496,0.08307767239493008,-0.41329396687225728,0.22130774915288098,10.362360166666665,-0.59657120833333332,-4.576436666666666
1403636860511666432,0.098436569812480182,-0.39584067435231396,0.21711895894809458,10.444082249999999,-0.41678262500000002,-4.5927810833333327
1403636860516666624,0.10890854532444616,-0.38816122564353883,0.21642082724729686,10.346015749999999,-0.32688833333333334,-4.5355756249999999
1403636860521666560,0.1054178868204575,-0.38397243543875248,0.1982694030265558,10.207088208333332,-0.26968287499999999,-4.4620257499999996
1403636860526666496,0.10611601852125524,-0.38955748904513432,0.19058995431778078,10.100849499999999,-0.25333845833333329,-4.4456813333333329
1403636860531666432,0.098436569812480182,-0.38257617203715705,0.17523105690023066,10.198916000000001,-0.073549874999999987,-4.666330958333333
1403636860536666624,0.084473935796525554,-0.37210419652519106,0.16126842288427606,10.198916000000001,0.089894291666666667,-4.8869805833333331
1403636860541666560,0.058643062867009467,-0.35674529910764097,0.14241886696273731,10.215260416666666,0.32688833333333334,-5.074941374999999
1403636860546666496,0.031415926535897934,-0.34417892849328174,0.13124875974997358,9.9374053333333343,0.3105439166666667,-5.1648356666666659
1403636860551666432,0.0076794487087750501,-0.34487706019407954,0.11868238913561441,9.8556832499999985,0.073549874999999987,-5.3037632083333337
1403636860556666624,-0.0062831853071795866,-0.34627332359567498,0.11030480872604163,9.733100125,-0.17978858333333333,-5.3037632083333337
1403636860561666560,-0.014660765716752367,-0.3490658503988659,0.10890854532444616,9.7984777916666665,-0.31871612500000002,-5.3609686666666656
1403636860566666496,-0.0013962634015954637,-0.34766958699727046,0.11728612573401893,9.822994416666667,-0.47398808333333331,-5.3037632083333337
1403636860571666432,0.0097738438111682462,-0.33999013828849539,0.13055062804917586,10.010955208333332,-0.44129924999999998,-5.3282798333333332
1403636860576666624,0.02652900463031381,-0.32742376767413622,0.14940018397071461,10.019127416666667,-0.53119354166666666,-5.2547299583333338
1403636860581666560,0.038397243543875248,-0.30997047515419296,0.16057029118347829,10.182571583333333,-0.58839899999999989,-5.2220411249999996
1403636860586666496,0.05305800926062762,-0.2918190509334519,0.16964600329384885,10.076332875,-0.71915433333333334,-5.0912857916666665
1403636860591666432,0.073303828583761846,-0.2778564169174973,0.17662732030182612,10.158054958333333,-0.76818758333333337,-4.9932192916666667
1403636860596666624,0.098436569812480182,-0.26179938779914941,0.17662732030182612,10.059988458333333,-0.8253930416666666,-4.9523582499999996
1403636860601666560,0.11868238913561441,-0.25062928058638573,0.17802358370342161,10.076332875,-0.71098212499999991,-4.9523582499999996
1403636860606666496,0.12775810124598494,-0.23108159296404923,0.16824973989225336,10.043644041666665,-0.49850470833333332,-5.0340803333333328
1403636860611666432,0.1340412865531645,-0.22130774915288098,0.16196655458507375,10.051816249999998,-0.26151066666666667,-5.066769166666667
1403636860616666624,0.13124875974997358,-0.20036379812894903,0.15219271077390556,9.9374053333333343,-0.16344416666666667,-5.1076302083333331
1403636860621666560,0.12217304763960307,-0.19408061282176942,0.13753194505715316,9.9700941666666658,-0.073549874999999987,-5.1893522916666663
1403636860626666496,0.11030480872604163,-0.17662732030182612,0.1228711793404008,9.9374053333333343,-0.13075533333333333,-5.1811800833333326
1403636860631666432,0.094945911308491532,-0.17243853009703977,0.099832833214075656,10.051816249999998,-0.089894291666666667,-5.1893522916666663
1403636860636666624,0.07819075048934597,-0.15777776438028737,0.07958701389094143,10.149882749999998,-0.065377666666666667,-5.3037632083333337
1403636860641666560,0.072605696882964116,-0.14940018397071461,0.064228116473391328,10.141710541666667,-0.13075533333333333,-5.3282798333333332
1403636860646666496,0.059341194567807204,-0.1361356816555577,0.042586033748661642,10.239777041666667,-0.17161637500000002,-5.3854852916666669
1403636860651666432,0.056548667764616284,-0.12496557444279401,0.032812189937493394,10.2969825,-0.25333845833333329,-5.3854852916666669
1403636860656666624,0.057246799465414,-0.11938052083641214,0.023736477827122883,10.419565624999999,-0.35140495833333335,-5.336452041666667
1403636860661666560,0.064926248174189058,-0.11170107212763709,0.024434609527920613,10.337843541666667,-0.57205458333333326,-5.2874187916666662
1403636860666666496,0.078888882190143686,-0.10192722831646883,0.025132741228718346,10.427737833333332,-0.65377666666666667,-5.2629021666666658
1403636860671666432,0.092153384505300612,-0.093549647906896058,0.034208453339088861,10.427737833333332,-0.67829329166666663,-5.2629021666666658
1403636860676666624,0.10332349171806432,-0.08237954069413235,0.042586033748661642,10.574837583333332,-0.62108783333333339,-5.2792465833333333
1403636860681666560,0.11309733552923257,-0.073303828583761846,0.048171087355043489,10.558493166666667,-0.63743225000000003,-5.2547299583333338
1403636860686666496,0.11588986233242347,-0.057944931166211737,0.039793506945470715,10.664731874999999,-0.50667691666666659,-5.3609686666666656
1403636860691666432,0.1075122819228507,-0.046076692252650306,0.037699111843077518,10.591182,-0.40861041666666664,-5.3609686666666656
1403636860696666624,0.097040306410884708,-0.037699111843077518,0.020943951023931952,10.697420708333333,-0.27785508333333331,-5.4426907500000006
1403636860701666560,0.074700091985357306,-0.027925268031909273,0.014660765716752367,10.615698625,-0.27785508333333331,-5.4672073749999992
1403636860706666496,0.05375614096142535,-0.022340214425527419,0.00069813170079773186,10.648387458333334,-0.22882183333333334,-5.5080684166666662
1403636860711666432,0.036302848441482058,-0.013264502315156905,-0.013264502315156905,10.583009791666665,-0.20430520833333332,-5.5325850416666666
1403636860716666624,0.019547687622336492,-0.014660765716752367,-0.029321531433504733,10.681076291666665,-0.22064962499999999,-5.5734460833333328
1403636860721666560,0.0048869219055841231,-0.0055850536063818549,-0.046076692252650306,10.697420708333333,-0.26151066666666667,-5.5325850416666666
1403636860726666496,-0.008377580409572781,-0.0020943951023931952,-0.062133721370998138,10.926242541666667,-0.21247741666666667,-5.5652738749999999
1403636860731666432,-0.018849555921538759,0.0076794487087750501,-0.076794487087750496,10.852692666666666,-0.28602729166666663,-5.5325850416666666
1403636860736666624,-0.023736477827122883,0.0097738438111682462,-0.087266462599716474,10.958931374999999,-0.26151066666666667,-5.516240625
1403636860741666560,-0.02722713633111154,0.021642082724729686,-0.090757121103705138,10.869037083333334,-0.3105439166666667,-5.4835517916666667
1403636860746666496,-0.023736477827122883,0.022340214425527419,-0.091455252804502868,10.901725916666665,-0.38409379166666668,-5.4998962083333325
1403636860751666432,-0.022340214425527419,0.032114058236695664,-0.094945911308491532,10.836348249999999,-0.41678262500000002,-5.475379583333333
1403636860756666624,-0.013264502315156905,0.036302848441482058,-0.096342174710086978,10.836348249999999,-0.41678262500000002,-5.4508629583333326
1403636860761666560,-0.0048869219055841231,0.042586033748661642,-0.10192722831646883,10.795487208333332,-0.44129924999999998,-5.4835517916666667
1403636860766666496,0.0013962634015954637,0.042586033748661642,-0.10262536001726656,10.811831625,-0.40043820833333332,-5.5652738749999999
1403636860771666432,0.0048869219055841231,0.046076692252650306,-0.1054178868204575,10.795487208333332,-0.37592158333333331,-5.5244128333333329
1403636860776666624,0.0062831853071795866,0.038397243543875248,-0.10262536001726656,10.909898125,-0.35140495833333335,-5.5244128333333329
1403636860781666560,0.0062831853071795866,0.041189770347066175,-0.10262536001726656,10.934414749999998,-0.30237170833333332,-5.5489294583333324
1403636860786666496,0.01117010721276371,0.034208453339088861,-0.094247779607693802,11.03248125,-0.24516625,-5.4835517916666667
1403636860791666432,0.0069813170079773184,0.034906585039886591,-0.090757121103705138,11.155064374999998,-0.26151066666666667,-5.5407572499999995
1403636860796666624,0.0048869219055841231,0.031415926535897934,-0.086568330898918744,11.179580999999999,-0.31871612500000002,-5.516240625
1403636860801666560,0.0013962634015954637,0.033510321638291124,-0.085172067497323284,11.351197375,-0.28602729166666663,-5.5244128333333329
1403636860806666496,0.0034906585039886592,0.032812189937493394,-0.08237954069413235,11.285819708333333,-0.28602729166666663,-5.5652738749999999
1403636860811666432,0.0027925268031909274,0.037699111843077518,-0.088662726001311934,11.359369583333333,-0.23699404166666665,-5.6143071249999998
1403636860816666624,0.00069813170079773186,0.042586033748661642,-0.089360857702109678,11.195925416666665,-0.26151066666666667,-5.5979627083333323
1403636860821666560,0.0020943951023931952,0.046774823953448029,-0.089360857702109678,11.179580999999999,-0.22882183333333334,-5.6469959583333331
1403636860826666496,0.0048869219055841231,0.039793506945470715,-0.086568330898918744,11.016136833333332,-0.25333845833333329,-5.6306515416666665
1403636860831666432,0.0048869219055841231,0.033510321638291124,-0.08237954069413235,11.106031124999999,-0.22882183333333334,-5.6715125833333335
1403636860836666624,0.010471975511965976,0.029321531433504733,-0.07819075048934597,11.03248125,-0.22882183333333334,-5.6143071249999998
1403636860841666560,0.012566370614359173,0.031415926535897934,-0.073303828583761846,11.146892166666666,-0.16344416666666667,-5.6388237499999994
1403636860846666496,0.017453292519943295,0.034208453339088861,-0.066322511575784518,11.056997874999999,-0.18796079166666665,-5.5489294583333324
1403636860851666432,0.018849555921538759,0.033510321638291124,-0.064926248174189058,11.204097624999999,-0.098066500000000001,-5.5407572499999995
1403636860856666624,0.020943951023931952,0.037000980142279788,-0.056548667764616284,11.122375541666667,-0.122583125,-5.4998962083333325
1403636860861666560,0.02583087292951608,0.039095375244672985,-0.049567350756638949,11.318508541666665,-0.11441091666666667,-5.5489294583333324
1403636860866666496,0.028623399732707,0.039793506945470715,-0.037699111843077518,11.171408791666666,-0.196133,-5.5407572499999995
1403636860871666432,0.041189770347066175,0.035604716740684328,-0.032812189937493394,11.212269833333332,-0.22882183333333334,-5.5407572499999995
1403636860876666624,0.048869219055841226,0.037000980142279788,-0.030019663134302467,11.106031124999999,-0.26968287499999999,-5.5979627083333323
1403636860881666560,0.050963614158234416,0.032812189937493394,-0.0307177948351002,11.146892166666666,-0.13892754166666665,-5.655168166666666
1403636860886666496,0.050265482457436693,0.032812189937493394,-0.031415926535897934,11.016136833333332,-0.073549874999999987,-5.6796847916666664
1403636860891666432,0.052359877559829883,0.028623399732707,-0.035604716740684328,11.056997874999999,-0.040861041666666667,-5.7123736249999997
1403636860896666624,0.050963614158234416,0.027925268031909273,-0.040491638646268438,10.918070333333333,-0.065377666666666667,-5.6878569999999993
1403636860901666560,0.048869219055841226,0.023038346126325153,-0.040491638646268438,10.926242541666667,-0.04903325,-5.6469959583333331
1403636860906666496,0.048171087355043489,0.032114058236695664,-0.038397243543875248,10.877209291666667,-0.11441091666666667,-5.5979627083333323
1403636860911666432,0.049567350756638949,0.030019663134302467,-0.039793506945470715,10.811831625,-0.122583125,-5.5734460833333328
1403636860916666624,0.05305800926062762,0.041189770347066175,-0.034906585039886591,10.746453958333333,-0.13892754166666665,-5.5652738749999999
1403636860921666560,0.057246799465414,0.045378560551852569,-0.025132741228718346,10.762798374999999,-0.15527195833333335,-5.5407572499999995
1403636860926666496,0.060737457969402671,0.05166174585903216,-0.021642082724729686,10.738281749999999,-0.14709974999999997,-5.5080684166666662
1403636860931666432,0.064228116473391328,0.062133721370998138,-0.0041887902047863905,10.648387458333334,-0.22064962499999999,-5.4345185416666668
1403636860936666624,0.069115038378975438,0.071209433481368656,0.0076794487087750501,10.640215249999999,-0.22064962499999999,-5.3527964583333327
1403636860941666560,0.072605696882964116,0.072605696882964116,0.021642082724729686,10.648387458333334,-0.24516625,-5.2874187916666662
1403636860946666496,0.068416906678177722,0.08237954069413235,0.02583087292951608,10.607526416666667,-0.14709974999999997,-5.2547299583333338
1403636860951666432,0.066322511575784518,0.087266462599716474,0.028623399732707,10.632043041666666,-0.0081722083333333334,-5.2383855416666663
1403636860956666624,0.062133721370998138,0.1054178868204575,0.023038346126325153,10.730109541666666,0.098066500000000001,-5.24655775
1403636860961666560,0.048869219055841226,0.114493598930828,0.016755160819145562,10.574837583333332,0.057205458333333334,-5.1975245000000001
1403636860966666496,0.037000980142279788,0.12985249634837812,0.0041887902047863905,10.648387458333334,0.17161637500000002,-5.1648356666666659
1403636860971666432,0.025132741228718346,0.13753194505715316,-0.008377580409572781,10.509459916666668,0.122583125,-5.0994580000000003
1403636860976666624,0.0153588974175501,0.14521139376592823,-0.020943951023931952,10.427737833333332,0.22064962499999999,-5.074941374999999
1403636860981666560,0.0076794487087750501,0.15219271077390556,-0.018849555921538759,10.256121458333332,0.196133,-5.0095637083333333
1403636860986666496,-0.0055850536063818549,0.15638150097869194,-0.016057029118347832,10.223432624999999,0.13892754166666665,-5.0013914999999995
1403636860991666432,-0.01117010721276371,0.1647590813882647,-0.0013962634015954637,10.125366124999999,-0.016344416666666667,-4.9768748749999991
1403636860996666624,-0.0076794487087750501,0.18500490071139891,0.0090757121103705145,10.133538333333334,-0.057205458333333334,-4.9523582499999996
1403636861001666560,-0.0055850536063818549,0.19687313962496036,0.018151424220741029,9.9374053333333343,-0.15527195833333335,-4.8951527916666659
1403636861006666496,-0.00069813170079773186,0.20943951023931953,0.028623399732707,9.9292331249999997,-0.16344416666666667,-4.8869805833333331
1403636861011666432,0.0055850536063818549,0.22549653935766736,0.032114058236695664,9.7167557083333325,-0.13892754166666665,-4.8869805833333331
1403636861016666624,0.010471975511965976,0.23527038316883564,0.037000980142279788,9.6922390833333321,-0.098066500000000001,-4.8788083749999993
1403636861021666560,0.013962634015954637,0.2457423586808016,0.049567350756638949,9.5369671250000003,-0.20430520833333332,-4.8297751249999994
1403636861026666496,0.018849555921538759,0.25132741228718347,0.060039326268604934,9.6023447916666651,-0.20430520833333332,-4.797086291666667
1403636861031666432,0.022340214425527419,0.25970499269675623,0.074700091985357306,9.5287949166666657,-0.196133,-4.7071919999999992
1403636861036666624,0.025132741228718346,0.26040312439755398,0.087964594300514204,9.594172583333334,-0.098066500000000001,-4.6581587499999992
1403636861041666560,0.02583087292951608,0.27157323161031771,0.090058989402907408,9.6922390833333321,-0.057205458333333334,-4.5846088749999998
1403636861046666496,0.020245819323134219,0.28413960222467688,0.091455252804502868,9.7657889583333333,0.016344416666666667,-4.5682644583333332
1403636861051666432,0.013264502315156905,0.30508355324860881,0.086568330898918744,9.7657889583333333,0.040861041666666667,-4.5519200416666665
1403636861056666624,0.0048869219055841231,0.31695179216217023,0.07958701389094143,9.8066499999999994,0.073549874999999987,-4.5682644583333332
1403636861061666560,-0.0034906585039886592,0.33091442617812489,0.069115038378975438,9.6922390833333321,0.11441091666666667,-4.4701979583333324
1403636861066666496,-0.011868238913561441,0.33789574318610222,0.064228116473391328,9.6268614166666655,0.14709974999999997,-4.4375091250000001
1403636861071666432,-0.022340214425527419,0.35185837720205682,0.05305800926062762,9.5206227083333328,0.057205458333333334,-4.4129924999999997
1403636861076666624,-0.02722713633111154,0.35116024550125913,0.050265482457436693,9.4552450416666662,0.04903325,-4.3476148333333331
1403636861081666560,-0.029321531433504733,0.36023595761162963,0.049567350756638949,9.3898673749999997,0.0,-4.3884758750000001
1403636861086666496,-0.028623399732707,0.37140606482439331,0.057944931166211737,9.3081452916666674,-0.098066500000000001,-4.396648083333333
1403636861091666432,-0.022340214425527419,0.38467056713955022,0.065624379874986788,9.2836286666666652,-0.14709974999999997,-4.3394426250000002
1403636861096666624,-0.016057029118347832,0.39653880605311159,0.08307767239493008,9.0874956666666655,-0.13892754166666665,-4.2658927499999999
1403636861101666560,-0.011868238913561441,0.41399209857305497,0.094945911308491532,8.9812569583333328,-0.11441091666666667,-4.2168595
1403636861106666496,-0.0069813170079773184,0.41887902047863906,0.10890854532444616,8.8750182500000001,-0.065377666666666667,-4.1759984583333329
1403636861111666432,-0.0013962634015954637,0.42795473258900957,0.10402162341886204,8.8668460416666655,-0.016344416666666667,-4.1596540416666663
1403636861116666624,-0.0027925268031909274,0.43633231299858238,0.10402162341886204,8.7851239583333331,0.089894291666666667,-4.1923428749999996
1403636861121666560,-0.0062831853071795866,0.44331363000655966,0.097040306410884708,8.834157208333334,0.23699404166666665,-4.1923428749999996
1403636861126666496,-0.016057029118347832,0.44959681531373935,0.088662726001311934,8.7851239583333331,0.3350605416666666,-4.1923428749999996
1403636861131666432,-0.027925268031909273,0.45029494701453704,0.071209433481368656,9.0466346249999994,0.4494714583333333,-4.2250317083333329
1403636861136666624,-0.040491638646268438,0.45238934211693027,0.055850536063818547,9.0711512499999998,0.38409379166666668,-4.1433096249999997
1403636861141666560,-0.050963614158234416,0.45238934211693027,0.032114058236695664,9.3490063333333335,0.30237170833333332,-4.1187929999999993
1403636861146666496,-0.05305800926062762,0.45867252742410985,0.017453292519943295,9.3408341249999989,0.04903325,-4.0207264999999994
1403636861151666432,-0.048869219055841226,0.45867252742410985,0.0062831853071795866,9.5778281666666665,0.016344416666666667,-4.0288987083333332
1403636861156666624,-0.041887902047863905,0.46635197613288482,0.012566370614359173,9.5369671250000003,-0.10623870833333333,-4.0125542916666666
1403636861161666560,-0.037000980142279788,0.4726351614400644,0.021642082724729686,9.6350336250000002,-0.14709974999999997,-4.0534153333333327
1403636861166666496,-0.023736477827122883,0.48450340035362588,0.033510321638291124,9.5042782916666653,-0.29419949999999995,-4.0942763749999997
1403636861171666432,-0.012566370614359173,0.50056042947197366,0.041189770347066175,9.471589458333332,-0.31871612500000002,-4.1514818333333334
1403636861176666624,-0.0048869219055841231,0.51242866838553514,0.05166174585903216,9.1365289166666663,-0.36774937499999999,-4.1024485833333335
1403636861181666560,0.0062831853071795866,0.51242866838553514,0.05166174585903216,8.9485681249999995,-0.24516625,-4.1024485833333335
1403636861186666496,0.0090757121103705145,0.5166174585903216,0.048171087355043489,8.6870574583333333,-0.11441091666666667,-4.0207264999999994
1403636861191666432,0.0097738438111682462,0.50893800988154647,0.047472955654245766,8.572646541666666,-0.057205458333333334,-4.0288987083333332
1403636861196666624,0.0069813170079773184,0.50893800988154647,0.043982297150257102,8.5399577083333327,0.073549874999999987,-3.9880376666666666
1403636861201666560,0.0076794487087750501,0.51103240498393976,0.046774823953448029,8.6216797916666668,0.11441091666666667,-4.0125542916666666
1403636861206666496,0.0041887902047863905,0.52080624879510795,0.047472955654245766,8.5644743333333331,0.122583125,-3.9553488333333329
1403636861211666432,0.00069813170079773186,0.51940998539351246,0.050963614158234416,8.5481299166666673,0.22882183333333334,-3.97169325
1403636861216666624,-0.0090757121103705145,0.52708943410228748,0.048171087355043489,8.5481299166666673,0.27785508333333331,-3.9635210416666666
1403636861221666560,-0.0090757121103705145,0.52708943410228748,0.048171087355043489,8.6788852500000004,0.30237170833333332,-3.92266
1403636861226666496,-0.014660765716752367,0.5249950389998943,0.046076692252650306,8.7197462916666666,0.22064962499999999,-3.9144877916666663
1403636861231666432,-0.016755160819145562,0.51940998539351246,0.045378560551852569,8.793296166666666,0.13075533333333333,-3.881798958333333
1403636861236666624,-0.013962634015954637,0.52010811709431026,0.044680428851054839,8.8505016249999997,0.024516625,-3.8654545416666664
1403636861241666560,-0.0062831853071795866,0.51801372199191698,0.05166174585903216,8.8586738333333326,-0.089894291666666667,-3.8736267500000001
1403636861246666496,-0.0020943951023931952,0.52290064389750113,0.061435589670200401,9.0221180000000007,-0.073549874999999987,-3.8654545416666664
1403636861251666432,0.0013962634015954637,0.51801372199191698,0.067718774977379978,8.8995348749999987,-0.10623870833333333,-3.7837324583333327
1403636861256666624,0.008377580409572781,0.52010811709431026,0.07819075048934597,8.8913626666666659,-0.15527195833333335,-3.7265269999999999
1403636861261666560,0.016057029118347832,0.51522119518872611,0.095644043009289262,8.7034018749999991,-0.21247741666666667,-3.6284604999999996
1403636861266666496,0.016057029118347832,0.51033427328314196,0.10471975511965977,8.7115740833333319,-0.13075533333333333,-3.5303939999999998
1403636861271666432,0.016057029118347832,0.50544735137755781,0.11588986233242347,8.6380242083333325,-0.089894291666666667,-3.4241552916666667
1403636861276666624,0.018849555921538759,0.50265482457436694,0.11239920382843484,8.5971631666666664,-0.040861041666666667,-3.4404997083333333
1403636861281666560,0.017453292519943295,0.50125856117277146,0.11728612573401893,8.3765135416666663,-0.081722083333333334,-3.3260887916666664
1403636861286666496,0.011868238913561441,0.50335295627516463,0.11100294042683936,8.3029636666666669,0.10623870833333333,-3.2443667083333327
1403636861291666432,0.0048869219055841231,0.49916416607037822,0.11379546723003027,8.033280791666666,0.16344416666666667,-3.1708168333333329
1403636861296666624,-0.0013962634015954637,0.49357911246399638,0.10332349171806432,7.9924197499999989,0.26968287499999999,-3.1953334583333328
1403636861301666560,-0.008377580409572781,0.48939032225920998,0.1075122819228507,7.7881145416666664,0.26151066666666667,-3.1463002083333333
1403636861306666496,-0.0153588974175501,0.47682395164485086,0.10332349171806432,7.7554257083333331,0.26151066666666667,-3.1463002083333333
1403636861311666432,-0.011868238913561441,0.47193702973926671,0.11030480872604163,7.5756371249999992,0.23699404166666665,-3.0809225416666663
1403636861316666624,-0.013264502315156905,0.45937065912490754,0.11239920382843484,7.6410147916666666,0.24516625,-3.0809225416666663
1403636861321666560,-0.016057029118347832,0.45238934211693027,0.11309733552923257,7.4857428333333322,0.25333845833333329,-3.0318892916666664
1403636861326666496,-0.022340214425527419,0.44401176170735746,0.10681415022205297,7.5592927083333334,0.32688833333333334,-3.0400614999999998
1403636861331666432,-0.030019663134302467,0.43982297150257099,0.10192722831646883,7.4612262083333336,0.28602729166666663,-2.9419949999999999
1403636861336666624,-0.036302848441482058,0.42935099599060511,0.092153384505300612,7.5756371249999992,0.30237170833333332,-2.8847895416666667
1403636861341666560,-0.048869219055841226,0.42725660088821188,0.092851516206098328,7.534776083333333,0.10623870833333333,-2.8439284999999996
1403636861346666496,-0.050963614158234416,0.42027528388023455,0.092851516206098328,7.5756371249999992,-0.024516625,-2.7540342083333331
1403636861351666432,-0.050265482457436693,0.41329396687225728,0.095644043009289262,7.5511204999999997,-0.17161637500000002,-2.6559677083333328
1403636861356666624,-0.046774823953448029,0.40282199136029123,0.10471975511965977,7.5756371249999992,-0.26151066666666667,-2.4925235416666665
1403636861361666560,-0.034906585039886591,0.39723693775390939,0.12496557444279401,7.5511204999999997,-0.27785508333333331,-2.4108014583333333
1403636861366666496,-0.029321531433504733,0.38955748904513432,0.14521139376592823,7.534776083333333,-0.30237170833333332,-2.3535959999999996
1403636861371666432,-0.030019663134302467,0.39304814754912304,0.16615534478986016,7.4203651666666666,-0.30237170833333332,-2.2555295000000002
1403636861376666624,-0.023038346126325153,0.38746309394274114,0.18081611050661253,7.3468152916666662,-0.27785508333333331,-2.2310128749999998
1403636861381666560,-0.018151424220741029,0.38746309394274114,0.18779742751458986,7.1670267083333332,-0.21247741666666667,-2.1656352083333332
1403636861386666496,-0.024434609527920613,0.38117990863556156,0.19128808601857852,6.9708937083333327,-0.16344416666666667,-2.2146684583333331
1403636861391666432,-0.028623399732707,0.37978364523396613,0.1864011641129944,6.7992773333333334,-0.11441091666666667,-2.2391850833333331
1403636861396666624,-0.034906585039886591,0.37210419652519106,0.18570303241219666,6.5949721249999991,-0.0081722083333333334,-2.2473572916666664
1403636861401666560,-0.038397243543875248,0.36512287951721373,0.18151424220741028,6.5377666666666663,0.04903325,-2.3127349583333334
1403636861406666496,-0.041189770347066175,0.35395277230445005,0.16894787159305111,6.3906669166666656,0.122583125,-2.2963905416666663
1403636861411666432,-0.046076692252650306,0.34627332359567498,0.14521139376592823,6.3743224999999999,0.17978858333333333,-2.3209071666666663
1403636861416666624,-0.050963614158234416,0.33510321638291124,0.12007865253720987,6.2027061249999988,0.25333845833333329,-2.3372515833333334
1403636861421666560,-0.055152404363020817,0.32323497746934982,0.087266462599716474,6.3007726249999996,0.3105439166666667,-2.3290793749999996
1403636861426666496,-0.058643062867009467,0.30717794835100198,0.067718774977379978,6.2190505416666664,0.20430520833333332,-2.3372515833333334
1403636861431666432,-0.060039326268604934,0.30229102644541789,0.048171087355043489,6.3334614583333337,0.057205458333333334,-2.3617682083333333
1403636861436666624,-0.055850536063818547,0.29530970943744062,0.044680428851054839,6.2435671666666668,-0.17978858333333333,-2.2391850833333331
1403636861441666560,-0.046774823953448029,0.28623399732707,0.043284165449459372,6.2680837916666663,-0.26151066666666667,-2.2064962499999998
1403636861446666496,-0.036302848441482058,0.27855454861829498,0.048171087355043489,6.1128118333333328,-0.3350605416666666,-2.0920853333333334
1403636861451666432,-0.0307177948351002,0.27296949501191314,0.055850536063818547,6.1455006666666669,-0.32688833333333334,-1.9940188333333333
1403636861456666624,-0.027925268031909273,0.25970499269675623,0.075398223686155036,6.0474341666666662,-0.34323275000000003,-1.9122967499999999
1403636861461666560,-0.02583087292951608,0.24434609527920614,0.089360857702109678,6.1781894999999993,-0.31871612500000002,-1.8796079166666666
1403636861466666496,-0.029321531433504733,0.23876104167282428,0.099832833214075656,6.096467416666667,-0.28602729166666663,-1.8550912916666666
1403636861471666432,-0.0307177948351002,0.22828906616085831,0.11239920382843484,6.1373284583333332,-0.16344416666666667,-1.8060580416666667
1403636861476666624,-0.037000980142279788,0.2241002759560719,0.12147491593880534,6.0065731250000001,-0.11441091666666667,-1.7161637499999998
1403636861481666560,-0.047472955654245766,0.20664698343612864,0.1291543646475804,6.0147453333333329,-0.040861041666666667,-1.7325081666666666
1403636861486666496,-0.057246799465414,0.19477874452256716,0.14032447186034408,5.9330232499999997,0.016344416666666667,-1.7079915416666664
1403636861491666432,-0.069115038378975438,0.17732545200262387,0.14381513036433274,5.9657120833333321,0.0081722083333333334,-1.7243359583333333
1403636861496666624,-0.075398223686155036,0.16545721308906244,0.14032447186034408,5.9085066250000002,-0.0081722083333333334,-1.7406803749999997
1403636861501666560,-0.085172067497323284,0.15219271077390556,0.13892820845874865,6.0065731250000001,0.04903325,-1.8632635
1403636861506666496,-0.092851516206098328,0.14032447186034408,0.12775810124598494,5.9902287083333334,0.089894291666666667,-1.9286411666666665
1403636861511666432,-0.094945911308491532,0.12217304763960307,0.11309733552923257,5.9902287083333334,0.13075533333333333,-2.0021910416666664
1403636861516666624,-0.099832833214075656,0.11588986233242347,0.088662726001311934,5.924851041666666,0.13075533333333333,-1.9776744166666664
1403636861521666560,-0.10053096491487339,0.092153384505300612,0.062133721370998138,5.9575398750000002,0.10623870833333333,-1.9776744166666664
1403636861526666496,-0.097738438111682452,0.074700091985357306,0.041189770347066175,5.9657120833333321,0.024516625,-1.9286411666666665
1403636861531666432,-0.090058989402907408,0.047472955654245766,0.02722713633111154,6.0637785833333329,-0.032688833333333334,-1.8877801249999999
1403636861536666624,-0.072605696882964116,0.029321531433504733,0.021642082724729686,6.0637785833333329,-0.13075533333333333,-1.8959523333333332
1403636861541666560,-0.056548667764616284,0.010471975511965976,0.030019663134302467,6.055606375,-0.21247741666666667,-1.8305746666666667
1403636861546666496,-0.041189770347066175,0.0041887902047863905,0.037699111843077518,6.0801229999999995,-0.22064962499999999,-1.8469190833333331
1403636861551666432,-0.024434609527920613,-0.0097738438111682462,0.045378560551852569,6.0392619583333333,-0.27785508333333331,-1.8305746666666667
1403636861556666624,-0.01117010721276371,-0.018151424220741029,0.05166174585903216,6.0392619583333333,-0.25333845833333329,-1.8469190833333331
1403636861561666560,-0.0055850536063818549,-0.034906585039886591,0.058643062867009467,5.9493676666666664,-0.26151066666666667,-1.7651969999999999
1403636861566666496,-0.00069813170079773186,-0.050963614158234416,0.067020643276582248,5.9738842916666659,-0.15527195833333335,-1.8550912916666666
1403636861571666432,-0.0041887902047863905,-0.067020643276582248,0.073303828583761846,5.8758177916666661,-0.14709974999999997,-1.8632635
1403636861576666624,-0.0076794487087750501,-0.078888882190143686,0.08307767239493008,6.0310897499999996,-0.15527195833333335,-1.9368133750000001
1403636861581666560,-0.011868238913561441,-0.090058989402907408,0.092153384505300612,6.055606375,-0.22064962499999999,-1.9286411666666665
1403636861586666496,-0.01117010721276371,-0.10890854532444616,0.10192722831646883,6.1455006666666669,-0.22882183333333334,-2.0185354583333335
1403636861591666432,-0.011868238913561441,-0.11728612573401893,0.11100294042683936,6.1945339166666669,-0.23699404166666665,-2.0267076666666664
1403636861596666624,-0.011868238913561441,-0.12356931104119852,0.11588986233242347,6.3824947083333337,-0.25333845833333329,-2.1411185833333333
1403636861601666560,-0.0090757121103705145,-0.13264502315156904,0.11519173063162574,6.4233557499999998,-0.26968287499999999,-2.1656352083333332
1403636861606666496,-0.0034906585039886592,-0.14590952546672595,0.1075122819228507,6.5541110833333329,-0.23699404166666665,-2.2146684583333331
1403636861611666432,0.0020943951023931952,-0.15079644737231007,0.099134701513277898,6.4887334166666655,-0.28602729166666663,-2.2391850833333331
1403636861616666624,0.010471975511965976,-0.16057029118347829,0.091455252804502868,6.6440053749999999,-0.24516625,-2.1983240416666665
1403636861621666560,0.020245819323134219,-0.17313666179783749,0.092153384505300612,6.5867999166666662,-0.3105439166666667,-2.1492907916666666
1403636861626666496,0.036302848441482058,-0.18709929581379212,0.094945911308491532,6.7012108333333327,-0.3350605416666666,-2.10842975
1403636861631666432,0.047472955654245766,-0.19477874452256716,0.10611601852125524,6.7420718749999997,-0.34323275000000003,-2.1002575416666667
1403636861636666624,0.060039326268604934,-0.20245819323134223,0.11728612573401893,7.0526157916666659,-0.17978858333333333,-2.2310128749999998
1403636861641666560,0.067718774977379978,-0.1954768762233649,0.12566370614359174,6.9954103333333331,-0.11441091666666667,-2.2800461250000001
1403636861646666496,0.066322511575784518,-0.19966566642815131,0.12775810124598494,7.1343378749999999,-0.14709974999999997,-2.2963905416666663
1403636861651666432,0.062133721370998138,-0.1982694030265558,0.13124875974997358,6.9872381250000002,-0.25333845833333329,-2.2310128749999998
1403636861656666624,0.057246799465414,-0.20455258833373544,0.12985249634837812,7.0526157916666659,-0.32688833333333334,-2.2718739166666664
1403636861661666560,0.05445427266222308,-0.20385445663293766,0.12077678423800758,7.085304625,-0.3105439166666667,-2.4026292499999999
1403636861666666496,0.048171087355043489,-0.20943951023931953,0.1096066770252439,7.2405765833333326,-0.28602729166666663,-2.557901208333333
1403636861671666432,0.036302848441482058,-0.2059488517353309,0.092153384505300612,7.2732654166666668,-0.23699404166666665,-2.6396232916666666
1403636861676666624,0.02652900463031381,-0.20804324683772407,0.078888882190143686,7.2487487916666655,-0.25333845833333329,-2.6396232916666666
1403636861681666560,0.018151424220741029,-0.20664698343612864,0.057944931166211737,7.2650932083333331,-0.23699404166666665,-2.6477955
1403636861686666496,0.013962634015954637,-0.22270401255447644,0.046076692252650306,7.314126458333333,-0.24516625,-2.6723121249999999
1403636861691666432,0.016057029118347832,-0.22759093446006054,0.039095375244672985,7.493915041666666,-0.27785508333333331,-2.6314510833333329
1403636861696666624,0.020943951023931952,-0.24085543677521751,0.032114058236695664,7.7390812916666665,-0.30237170833333332,-2.6641399166666666
1403636861701666560,0.025132741228718346,-0.24225170017681294,0.029321531433504733,7.9597309166666657,-0.24516625,-2.7295175833333332
1403636861706666496,0.040491638646268438,-0.23806290997202653,0.035604716740684328,8.1640361249999991,-0.18796079166666665,-2.7867230416666664
1403636861711666432,0.047472955654245766,-0.22759093446006054,0.039095375244672985,8.3765135416666663,-0.016344416666666667,-2.9011339583333333
1403636861716666624,0.044680428851054839,-0.22130774915288098,0.048869219055841226,8.3519969166666659,0.0081722083333333334,-2.9828560416666661
1403636861721666560,0.045378560551852569,-0.21013764194011728,0.059341194567807204,8.3846857499999992,0.040861041666666667,-3.0809225416666663
1403636861726666496,0.042586033748661642,-0.21362830044410594,0.069115038378975438,8.2784470416666665,-0.0081722083333333334,-3.0809225416666663
1403636861731666432,0.034906585039886591,-0.21293016874330817,0.067020643276582248,8.4173745833333324,-0.024516625,-3.2035056666666666
1403636861736666624,0.023736477827122883,-0.2150245638457014,0.067718774977379978,8.4010301666666667,-0.089894291666666667,-3.2852277500000002
1403636861741666560,0.013962634015954637,-0.22340214425527419,0.060039326268604934,8.5481299166666673,-0.122583125,-3.342433208333333
1403636861746666496,0.0048869219055841231,-0.2199114857512855,0.047472955654245766,8.5072688749999994,-0.22064962499999999,-3.3097443750000002
1403636861751666432,-0.0041887902047863905,-0.21921335405048781,0.029321531433504733,8.6053353749999992,-0.26968287499999999,-3.3015721666666664
1403636861756666624,-0.011868238913561441,-0.21711895894809458,0.028623399732707,8.4255467916666653,-0.34323275000000003,-3.2443667083333327
1403636861761666560,-0.012566370614359173,-0.21432643214490363,0.023038346126325153,8.4909244583333336,-0.29419949999999995,-3.1871612499999999
1403636861766666496,-0.013962634015954637,-0.21293016874330817,0.019547687622336492,8.4173745833333324,-0.29419949999999995,-3.0645781249999997
1403636861771666432,-0.011868238913561441,-0.20943951023931953,0.013264502315156905,8.5154410833333323,-0.27785508333333331,-3.0237170833333331
1403636861776666624,-0.0076794487087750501,-0.21223203704251048,0.016057029118347832,8.3683413333333334,-0.28602729166666663,-2.9746838333333332
1403636861781666560,0.0041887902047863905,-0.21711895894809458,0.017453292519943295,8.5481299166666673,-0.26968287499999999,-2.9910282499999998
1403636861786666496,0.0153588974175501,-0.21781709064889232,0.024434609527920613,8.5399577083333327,-0.3350605416666666,-2.9746838333333332
1403636861791666432,0.032114058236695664,-0.21781709064889232,0.032114058236695664,8.6625408333333329,-0.26151066666666667,-3.1299557916666663
1403636861796666624,0.043284165449459372,-0.21223203704251048,0.055152404363020817,8.7115740833333319,-0.24516625,-3.2198500833333328
1403636861801666560,0.050265482457436693,-0.21153390534171271,0.08168140899333462,8.883190458333333,-0.23699404166666665,-3.366949833333333
1403636861806666496,0.058643062867009467,-0.20315632493213995,0.099832833214075656,8.834157208333334,-0.23699404166666665,-3.4731885416666666
1403636861811666432,0.064926248174189058,-0.20385445663293766,0.11030480872604163,8.9485681249999995,-0.32688833333333334,-3.6284604999999996
1403636861816666624,0.069813170079773182,-0.20245819323134223,0.11728612573401893,8.8750182500000001,-0.44129924999999998,-3.6529771249999996
1403636861821666560,0.071209433481368656,-0.20664698343612864,0.11030480872604163,8.8586738333333326,-0.51484912499999991,-3.7265269999999999
1403636861826666496,0.07749261878854824,-0.21223203704251048,0.094247779607693802,8.7851239583333331,-0.60474341666666664,-3.7592158333333332
1403636861831666432,0.078888882190143686,-0.22130774915288098,0.085172067497323284,8.7360907083333323,-0.59657120833333332,-3.7101825833333333
1403636861836666624,0.076794487087750496,-0.22270401255447644,0.078888882190143686,8.7197462916666666,-0.55571016666666662,-3.6856659583333333
1403636861841666560,0.07819075048934597,-0.228987197861656,0.07958701389094143,8.6216797916666668,-0.47398808333333331,-3.6611493333333334
1403636861846666496,0.074700091985357306,-0.22968532956245377,0.08307767239493008,8.7115740833333319,-0.30237170833333332,-3.587599458333333
1403636861851666432,0.072605696882964116,-0.24085543677521751,0.092153384505300612,8.7606073333333327,-0.32688833333333334,-3.4241552916666667
1403636861856666624,0.074700091985357306,-0.25621433419276757,0.099832833214075656,8.793296166666666,-0.29419949999999995,-3.2933999583333331
1403636861861666560,0.08307767239493008,-0.27296949501191314,0.10402162341886204,8.883190458333333,-0.32688833333333334,-3.1136113750000001
1403636861866666496,0.086568330898918744,-0.28623399732707,0.10471975511965977,9.1447011249999992,-0.26151066666666667,-3.1217835833333334
1403636861871666432,0.091455252804502868,-0.30438542154781112,0.10471975511965977,9.2672842499999994,-0.14709974999999997,-3.1054391666666663
1403636861876666624,0.093549647906896058,-0.30787608005179973,0.10262536001726656,9.4797616666666666,-0.057205458333333334,-3.1871612499999999
1403636861881666560,0.092851516206098328,-0.30717794835100198,0.10681415022205297,9.4143839999999983,-0.032688833333333334,-3.2770555416666665
1403636861886666496,0.090757121103705138,-0.30508355324860881,0.11519173063162574,9.4307284166666658,-0.081722083333333334,-3.4241552916666667
1403636861891666432,0.086568330898918744,-0.30647981665020424,0.12217304763960307,9.1283567083333317,-0.15527195833333335,-3.5058773749999999
1403636861896666624,0.085870199198121014,-0.31276300195738388,0.12636183784438945,9.0384624166666665,-0.16344416666666667,-3.6202882916666663
1403636861901666560,0.076794487087750496,-0.32183871406775438,0.12845623294678266,8.7524351249999999,-0.24516625,-3.7592158333333332
1403636861906666496,0.070511301780570912,-0.3392920065876977,0.12356931104119852,8.7034018749999991,-0.23699404166666665,-3.8491101249999997
1403636861911666432,0.060039326268604934,-0.35395277230445005,0.11588986233242347,8.5971631666666664,-0.29419949999999995,-3.8491101249999997
1403636861916666624,0.050963614158234416,-0.37000980142279782,0.11588986233242347,8.6625408333333329,-0.20430520833333332,-3.8736267500000001
1403636861921666560,0.044680428851054839,-0.37768925013157295,0.1165879940332212,8.5971631666666664,-0.26151066666666667,-3.7755602499999998
1403636861926666496,0.045378560551852569,-0.38885935734433663,0.12426744274199628,8.7687795416666656,-0.27785508333333331,-3.7346992083333332
1403636861931666432,0.050265482457436693,-0.39304814754912304,0.13892820845874865,8.7769517500000003,-0.32688833333333334,-3.6284604999999996
1403636861936666624,0.061435589670200401,-0.40002946455710037,0.16406094968746698,9.0221180000000007,-0.32688833333333334,-3.5712550416666669
1403636861941666560,0.070511301780570912,-0.40212385965949354,0.17802358370342161,9.1120122916666659,-0.29419949999999995,-3.5140495833333332
1403636861946666496,0.085172067497323284,-0.40910517666747087,0.18989182261698306,9.2918008749999998,-0.24516625,-3.5140495833333332
1403636861951666432,0.094247779607693802,-0.40491638646268446,0.20245819323134223,9.3244897083333331,-0.24516625,-3.5549106249999998
1403636861956666624,0.099134701513277898,-0.40701078156507764,0.20385445663293766,9.4062117916666654,-0.22064962499999999,-3.6529771249999996
1403636861961666560,0.094945911308491532,-0.40142572795869574,0.19966566642815131,9.2672842499999994,-0.16344416666666667,-3.7510436249999999
1403636861966666496,0.084473935796525554,-0.40421825476188677,0.18779742751458986,9.2591120416666666,-0.20430520833333332,-3.906315583333333
1403636861971666432,0.074700091985357306,-0.39793506945470714,0.17732545200262387,9.1365289166666663,-0.30237170833333332,-4.0288987083333332
1403636861976666624,0.070511301780570912,-0.40980330836826856,0.1626646862858715,9.0711512499999998,-0.41678262500000002,-4.1433096249999997
1403636861981666560,0.059341194567807204,-0.40701078156507764,0.15009831567151233,9.0139457916666661,-0.46581587499999999,-4.2413761249999995
1403636861986666496,0.049567350756638949,-0.40910517666747087,0.13543754995475996,9.0956678750000002,-0.44129924999999998,-4.3067537916666661
1403636861991666432,0.039793506945470715,-0.41050144006906625,0.12775810124598494,9.1773899583333325,-0.35140495833333335,-4.355787041666666
1403636861996666624,0.028623399732707,-0.40910517666747087,0.1291543646475804,9.3163174999999985,-0.30237170833333332,-4.3476148333333331
1403636862001666560,0.020943951023931952,-0.40491638646268446,0.1361356816555577,9.5206227083333328,-0.32688833333333334,-4.355787041666666
1403636862006666496,0.022340214425527419,-0.40491638646268446,0.15638150097869194,9.6268614166666655,-0.40861041666666664,-4.2740649583333337
1403636862011666432,0.029321531433504733,-0.39514254265151627,0.17453292519943295,9.9374053333333343,-0.37592158333333331,-4.2740649583333337
1403636862016666624,0.044680428851054839,-0.38536869884034791,0.19757127132575814,10.010955208333332,-0.36774937499999999,-4.2250317083333329
1403636862021666560,0.05375614096142535,-0.37140606482439331,0.1982694030265558,10.149882749999998,-0.32688833333333334,-4.2086872916666662
1403636862026666496,0.063529984772593598,-0.36582101121801147,0.20106192982974677,10.092677291666664,-0.3105439166666667,-4.2577205416666661
1403636862031666432,0.065624379874986788,-0.34697145529647272,0.20036379812894903,10.084505083333333,-0.26968287499999999,-4.4293369166666663
1403636862036666624,0.067020643276582248,-0.33300882128051806,0.19896753472735357,9.8638554583333331,-0.22064962499999999,-4.5028867916666666
1403636862041666560,0.060737457969402671,-0.32183871406775438,0.19198621771937624,9.7984777916666665,-0.15527195833333335,-4.6336421249999997
1403636862046666496,0.055152404363020817,-0.30647981665020424,0.19198621771937624,9.5451393333333332,-0.20430520833333332,-4.6009532916666664
1403636862051666432,0.046774823953448029,-0.30368728984701332,0.18430676901060122,9.4470728333333334,-0.18796079166666665,-4.666330958333333
1403636862056666624,0.037699111843077518,-0.29670597283903599,0.17802358370342161,9.2345954166666662,-0.21247741666666667,-4.6254699166666668
1403636862061666560,0.02652900463031381,-0.29530970943744062,0.1668534764906579,9.3081452916666674,-0.11441091666666667,-4.6745031666666668
1403636862066666496,0.019547687622336492,-0.28413960222467688,0.15777776438028737,9.3408341249999989,-0.16344416666666667,-4.5927810833333327
1403636862071666432,0.012566370614359173,-0.27925268031909273,0.14241886696273731,9.5778281666666665,-0.10623870833333333,-4.5192312083333332
1403636862076666624,0.0069813170079773184,-0.26529004630313807,0.14451326206513049,9.6268614166666655,-0.10623870833333333,-4.4129924999999997
1403636862081666560,0.010471975511965976,-0.25761059759436306,0.14521139376592823,9.9210609166666668,-0.089894291666666667,-4.4375091250000001
1403636862086666496,0.017453292519943295,-0.24504422698000386,0.14730578886832138,10.051816249999998,-0.13892754166666665,-4.3721314583333335
1403636862091666432,0.022340214425527419,-0.23876104167282428,0.15219271077390556,10.362360166666665,-0.18796079166666665,-4.3394426250000002
1403636862096666624,0.035604716740684328,-0.22619467105846514,0.16755160819145562,10.533976541666666,-0.24516625,-4.3639592499999997
1403636862101666560,0.049567350756638949,-0.22619467105846514,0.17732545200262387,10.681076291666665,-0.27785508333333331,-4.4048202916666659
1403636862106666496,0.062831853071795868,-0.21711895894809458,0.18989182261698306,10.713765125,-0.22064962499999999,-4.4947145833333328
1403636862111666432,0.073303828583761846,-0.21153390534171271,0.19617500792416265,10.828176041666667,-0.15527195833333335,-4.6254699166666668
1403636862116666624,0.07819075048934597,-0.20106192982974677,0.20315632493213995,10.852692666666666,-0.122583125,-4.6990197916666663
1403636862121666560,0.080285145591739146,-0.18919369091618532,0.19896753472735357,10.730109541666666,-0.13075533333333333,-4.7807418749999995
1403636862126666496,0.080285145591739146,-0.17104226669544431,0.19338248112097173,10.501287708333333,-0.13075533333333333,-4.8951527916666659
1403636862131666432,0.08237954069413235,-0.16755160819145562,0.18081611050661253,10.362360166666665,-0.13075533333333333,-4.9523582499999996
1403636862136666624,0.08307767239493008,-0.1626646862858715,0.1647590813882647,10.166227166666665,-0.098066500000000001,-5.0340803333333328
1403636862141666560,0.08307767239493008,-0.15847589608108512,0.15009831567151233,10.010955208333332,-0.0081722083333333334,-5.1403190416666664
1403636862146666496,0.074700091985357306,-0.15428710587629874,0.12566370614359174,10.027299624999999,0.065377666666666667,-5.2383855416666663
1403636862151666432,0.070511301780570912,-0.14870205226991687,0.10681415022205297,10.076332875,0.0,-5.3119354166666657
1403636862156666624,0.064228116473391328,-0.14381513036433274,0.07819075048934597,10.231604833333332,-0.089894291666666667,-5.3773130833333331
1403636862161666560,0.062831853071795868,-0.14381513036433274,0.060737457969402671,10.239777041666667,-0.14709974999999997,-5.3037632083333337
1403636862166666496,0.065624379874986788,-0.14241886696273731,0.044680428851054839,10.525804333333332,-0.089894291666666667,-5.3609686666666656
1403636862171666432,0.064228116473391328,-0.13892820845874865,0.041189770347066175,10.672904083333334,-0.024516625,-5.3446242499999999
1403636862176666624,0.059341194567807204,-0.13264502315156904,0.032812189937493394,11.138719958333333,0.065377666666666667,-5.4018297083333326
1403636862181666560,0.05375614096142535,-0.12985249634837812,0.028623399732707,11.269475291666666,0.040861041666666667,-5.3773130833333331
1403636862186666496,0.041189770347066175,-0.1270599695451872,0.016057029118347832,11.530985958333332,0.081722083333333334,-5.3936574999999998
1403636862191666432,0.034208453339088861,-0.11938052083641214,0.0055850536063818549,11.547330375,0.032688833333333334,-5.3527964583333327
1403636862196666624,0.017453292519943295,-0.12007865253720987,-0.0097738438111682462,11.686257916666666,0.122583125,-5.4018297083333326
1403636862201666560,0.0062831853071795866,-0.11938052083641214,-0.020943951023931952,11.530985958333332,0.065377666666666667,-5.426346333333333
1403636862206666496,-0.0041887902047863905,-0.12007865253720987,-0.034906585039886591,11.498297125000001,0.122583125,-5.4672073749999992
1403636862211666432,-0.018151424220741029,-0.11798425743481668,-0.050265482457436693,11.277647499999999,-0.04903325,-5.4590351666666663
1403636862216666624,-0.030019663134302467,-0.12356931104119852,-0.066322511575784518,11.212269833333332,-0.089894291666666667,-5.5244128333333329
1403636862221666560,-0.037699111843077518,-0.12147491593880534,-0.074700091985357306,10.991620208333332,-0.196133,-5.5571016666666662
1403636862226666496,-0.041189770347066175,-0.1291543646475804,-0.07958701389094143,10.991620208333332,-0.28602729166666663,-5.6306515416666665
1403636862231666432,-0.044680428851054839,-0.1270599695451872,-0.08307767239493008,10.909898125,-0.31871612500000002,-5.6388237499999994
1403636862236666624,-0.052359877559829883,-0.13055062804917586,-0.090058989402907408,11.056997874999999,-0.28602729166666663,-5.7042014166666659
1403636862241666560,-0.055850536063818547,-0.13124875974997358,-0.092153384505300612,11.056997874999999,-0.34323275000000003,-5.7042014166666659
1403636862246666496,-0.056548667764616284,-0.13473941825396224,-0.099134701513277898,11.122375541666667,-0.392266,-5.655168166666666
1403636862251666432,-0.05375614096142535,-0.1340412865531645,-0.093549647906896058,11.22861425,-0.43312704166666666,-5.6306515416666665
1403636862256666624,-0.048869219055841226,-0.13683381335635544,-0.085172067497323284,11.424747249999999,-0.40043820833333332,-5.5734460833333328
1403636862261666560,-0.040491638646268438,-0.12985249634837812,-0.069813170079773182,11.498297125000001,-0.35957716666666667,-5.5979627083333323
1403636862266666496,-0.030019663134302467,-0.1291543646475804,-0.05305800926062762,11.686257916666666,-0.27785508333333331,-5.6306515416666665
1403636862271666432,-0.023736477827122883,-0.1228711793404008,-0.041189770347066175,11.833357666666666,-0.18796079166666665,-5.6796847916666664
1403636862276666624,-0.016755160819145562,-0.1228711793404008,-0.034906585039886591,11.751635583333332,-0.089894291666666667,-5.6306515416666665
1403636862281666560,-0.014660765716752367,-0.12077678423800758,-0.039095375244672985,11.776152208333334,-0.0081722083333333334,-5.6224793333333336
1403636862286666496,-0.016057029118347832,-0.12566370614359174,-0.046774823953448029,11.702602333333333,0.04903325,-5.5652738749999999
1403636862291666432,-0.017453292519943295,-0.13055062804917586,-0.05445427266222308,11.678085708333333,0.04903325,-5.5897904999999994
1403636862296666624,-0.018151424220741029,-0.13683381335635544,-0.048869219055841226,11.669913499999998,0.073549874999999987,-5.6469959583333331
1403636862301666560,-0.017453292519943295,-0.13892820845874865,-0.05445427266222308,11.792496624999998,0.032688833333333334,-5.7205458333333334
1403636862306666496,-0.014660765716752367,-0.14102260356114182,-0.056548667764616284,11.759807791666667,-0.040861041666666667,-5.745062458333333
1403636862311666432,-0.0153588974175501,-0.14590952546672595,-0.069115038378975438,11.849702083333332,-0.089894291666666667,-5.8022679166666666
1403636862316666624,-0.013962634015954637,-0.14940018397071461,-0.067020643276582248,11.735291166666666,-0.13075533333333333,-5.7859234999999991
1403636862321666560,-0.011868238913561441,-0.15219271077390556,-0.070511301780570912,11.866046499999999,-0.15527195833333335,-5.8594733750000003
1403636862326666496,-0.01117010721276371,-0.15149457907310779,-0.052359877559829883,11.833357666666666,-0.25333845833333329,-5.834956749999999
1403636862331666432,-0.0027925268031909274,-0.15149457907310779,-0.034906585039886591,12.037662874999999,-0.27785508333333331,-5.9003344166666665
1403636862336666624,0.0055850536063818549,-0.14241886696273731,-0.01117010721276371,12.004974041666665,-0.392266,-5.9493676666666664
1403636862341666560,0.010471975511965976,-0.1291543646475804,0.018151424220741029,12.119384958333333,-0.35957716666666667,-6.0637785833333329
1403636862346666496,0.020943951023931952,-0.11588986233242347,0.044680428851054839,12.037662874999999,-0.37592158333333331,-6.055606375
1403636862351666432,0.02652900463031381,-0.1075122819228507,0.050265482457436693,12.01314625,-0.29419949999999995,-6.1536728749999989
1403636862356666624,0.027925268031909273,-0.096342174710086978,0.05305800926062762,11.718946750000001,-0.28602729166666663,-6.1046396249999999
1403636862361666560,0.023038346126325153,-0.086568330898918744,0.05445427266222308,11.604535833333333,-0.22064962499999999,-6.1291562499999994
1403636862366666496,0.024434609527920613,-0.085172067497323284,0.056548667764616284,11.359369583333333,-0.21247741666666667,-6.0882952083333333
1403636862371666432,0.028623399732707,-0.080983277292536876,0.057246799465414,11.285819708333333,-0.14709974999999997,-6.0719507916666657
1403636862376666624,0.024434609527920613,-0.073303828583761846,0.060737457969402671,11.13054775,-0.18796079166666665,-6.0065731250000001
1403636862381666560,0.02722713633111154,-0.064228116473391328,0.065624379874986788,11.212269833333332,-0.16344416666666667,-6.0147453333333329
1403636862386666496,0.025132741228718346,-0.05305800926062762,0.062133721370998138,11.187753208333334,-0.20430520833333332,-5.9657120833333321
1403636862391666432,0.029321531433504733,-0.041887902047863905,0.055152404363020817,11.22861425,-0.13892754166666665,-5.924851041666666
1403636862396666624,0.032812189937493394,-0.024434609527920613,0.05305800926062762,11.146892166666666,-0.18796079166666665,-5.8431289583333328
1403636862401666560,0.031415926535897934,-0.0097738438111682462,0.048171087355043489,11.179580999999999,-0.196133,-5.7940957083333329
1403636862406666496,0.032812189937493394,0.0055850536063818549,0.044680428851054839,11.122375541666667,-0.16344416666666667,-5.7614068749999996
1403636862411666432,0.034906585039886591,0.0090757121103705145,0.049567350756638949,11.146892166666666,-0.22882183333333334,-5.7205458333333334
1403636862416666624,0.031415926535897934,0.027925268031909273,0.048171087355043489,11.016136833333332,-0.20430520833333332,-5.6633403749999998
1403636862421666560,0.031415926535897934,0.035604716740684328,0.064926248174189058,10.926242541666667,-0.15527195833333335,-5.6143071249999998
1403636862426666496,0.02583087292951608,0.048869219055841226,0.07819075048934597,10.901725916666665,-0.04903325,-5.5979627083333323
1403636862431666432,0.020943951023931952,0.062133721370998138,0.085870199198121014,10.754626166666666,-0.040861041666666667,-5.4917240000000005
1403636862436666624,0.011868238913561441,0.074001960284559576,0.087964594300514204,10.730109541666666,-0.0081722083333333334,-5.3936574999999998
1403636862441666560,0.0062831853071795866,0.085172067497323284,0.093549647906896058,10.525804333333332,-0.016344416666666667,-5.3119354166666657
1403636862446666496,0.0041887902047863905,0.099832833214075656,0.085870199198121014,10.403221208333333,0.057205458333333334,-5.1975245000000001
1403636862451666432,-0.0062831853071795866,0.11030480872604163,0.08237954069413235,10.272465875,0.10623870833333333,-5.1076302083333331
1403636862456666624,-0.018849555921538759,0.12217304763960307,0.074001960284559576,10.239777041666667,0.16344416666666667,-5.1076302083333331
1403636862461666560,-0.024434609527920613,0.13473941825396224,0.067020643276582248,10.141710541666667,0.10623870833333333,-5.074941374999999
1403636862466666496,-0.034906585039886591,0.14521139376592823,0.05305800926062762,10.239777041666667,0.13075533333333333,-5.0340803333333328
1403636862471666432,-0.046076692252650306,0.15149457907310779,0.034906585039886591,10.092677291666664,0.04903325,-4.9441860416666659
1403636862476666624,-0.05445427266222308,0.15917402778188286,0.017453292519943295,10.149882749999998,0.13892754166666665,-4.9523582499999996
1403636862481666560,-0.058643062867009467,0.16057029118347829,0.0020943951023931952,10.084505083333333,0.11441091666666667,-4.9033249999999997
1403636862486666496,-0.070511301780570912,0.16406094968746698,0.0048869219055841231,10.198916000000001,0.11441091666666667,-4.8788083749999993
1403636862491666432,-0.07958701389094143,0.16894787159305111,0.0062831853071795866,10.100849499999999,0.057205458333333334,-4.8052584999999999
1403636862496666624,-0.086568330898918744,0.17523105690023066,0.013962634015954637,10.231604833333332,0.089894291666666667,-4.7643974583333328
1403636862501666560,-0.095644043009289262,0.1884955592153876,0.02722713633111154,10.207088208333332,0.13892754166666665,-4.7398808333333333
1403636862506666496,-0.10192722831646883,0.1982694030265558,0.032114058236695664,10.305154708333331,0.23699404166666665,-4.6990197916666663
1403636862511666432,-0.1291543646475804,0.20874137853852182,0.032114058236695664,10.133538333333334,0.27785508333333331,-4.6581587499999992
1403636862516666624,-0.143116998663535,0.21921335405048781,0.029321531433504733,10.141710541666667,0.29419949999999995,-4.6254699166666668
1403636862521666560,-0.15428710587629874,0.2241002759560719,0.032114058236695664,9.9210609166666668,0.18796079166666665,-4.5682644583333332
1403636862526666496,-0.1626646862858715,0.228987197861656,0.0307177948351002,9.8883720833333317,0.21247741666666667,-4.576436666666666
1403636862531666432,-0.17662732030182612,0.23387411976724018,0.027925268031909273,9.7657889583333333,0.22064962499999999,-4.5682644583333332
1403636862536666624,-0.19408061282176942,0.2366666465704311,0.025132741228718346,9.8801998750000006,0.21247741666666667,-4.5846088749999998
1403636862541666560,-0.20664698343612864,0.24504422698000386,0.0153588974175501,9.8393388333333327,0.10623870833333333,-4.6172977083333331
1403636862546666496,-0.21223203704251048,0.24993114888558801,0.0020943951023931952,9.8393388333333327,0.089894291666666667,-4.6990197916666663
1403636862551666432,-0.21781709064889232,0.25761059759436306,-0.020245819323134219,9.7821333750000008,0.081722083333333334,-4.6254699166666668
1403636862556666624,-0.22200588085367873,0.25481807079117208,-0.039793506945470715,9.7657889583333333,0.14709974999999997,-4.666330958333333
1403636862561666560,-0.23736477827122882,0.2631956512007449,-0.057944931166211737,9.7085834999999996,0.15527195833333335,-4.6499865416666664
1403636862566666496,-0.24504422698000386,0.27087509990951991,-0.067020643276582248,9.6758946666666663,0.21247741666666667,-4.666330958333333
1403636862571666432,-0.25411993909037439,0.27715828521669955,-0.066322511575784518,9.5451393333333332,0.26151066666666667,-4.6990197916666663
1403636862576666624,-0.2631956512007449,0.2813470754214859,-0.066322511575784518,9.4634172499999991,0.22064962499999999,-4.7153642083333329
1403636862581666560,-0.27296949501191314,0.28972465583105872,-0.069813170079773182,9.3898673749999997,0.16344416666666667,-4.7153642083333329
1403636862586666496,-0.2778564169174973,0.29321531433504738,-0.074001960284559576,9.2918008749999998,0.089894291666666667,-4.6826753749999996
1403636862591666432,-0.27925268031909273,0.30787608005179973,-0.080285145591739146,9.3244897083333331,0.0,-4.6990197916666663
1403636862596666624,-0.27715828521669955,0.31206487025658608,-0.08307767239493008,9.1692177499999996,-0.17978858333333333,-4.7071919999999992
1403636862601666560,-0.27296949501191314,0.31415926535897931,-0.08168140899333462,9.1447011249999992,-0.32688833333333334,-4.7889140833333332
1403636862606666496,-0.25761059759436306,0.31904618726456346,-0.062831853071795868,8.9240514999999991,-0.48216029166666663,-4.6826753749999996
1403636862611666432,-0.24085543677521751,0.31904618726456346,-0.029321531433504733,8.9158792916666663,-0.5475379583333333,-4.6091254999999993
1403636862616666624,-0.2150245638457014,0.31555552876057474,0.012566370614359173,8.8014683749999989,-0.53119354166666666,-4.5028867916666666
1403636862621666560,-0.19617500792416265,0.31625366046137249,0.047472955654245766,8.8995348749999987,-0.46581587499999999,-4.486542375
1403636862626666496,-0.18151424220741028,0.32253684576855213,0.068416906678177722,8.9567403333333324,-0.44129924999999998,-4.4701979583333324
1403636862631666432,-0.17523105690023066,0.3295181627765294,0.069115038378975438,9.1528733333333321,-0.35140495833333335,-4.4538535416666667
1403636862636666624,-0.16894787159305111,0.32742376767413622,0.056548667764616284,9.0874956666666655,-0.23699404166666665,-4.3803036666666664
1403636862641666560,-0.16824973989225336,0.32672563597333848,0.032812189937493394,9.1773899583333325,-0.122583125,-4.355787041666666
1403636862646666496,-0.16545721308906244,0.32183871406775438,0.010471975511965976,9.0629790416666669,-0.073549874999999987,-4.2822371666666665
1403636862651666432,-0.16196655458507375,0.31415926535897931,-0.0027925268031909274,9.2509398333333337,0.032688833333333334,-4.3394426250000002
1403636862656666624,-0.16824973989225336,0.31136673855578839,-0.0062831853071795866,9.2264232083333333,0.032688833333333334,-4.396648083333333
1403636862661666560,-0.1647590813882647,0.30717794835100198,-0.0069813170079773184,9.3898673749999997,0.04903325,-4.5192312083333332
1403636862666666496,-0.15987215948268058,0.31625366046137249,-0.0048869219055841231,9.332661916666666,-0.057205458333333334,-4.5355756249999999
1403636862671666432,-0.14870205226991687,0.31764992386296798,0.0048869219055841231,9.3653507499999993,-0.040861041666666667,-4.5110590000000004
1403636862676666624,-0.14660765716752369,0.32532937257174299,0.016755160819145562,9.1365289166666663,-0.04903325,-4.4947145833333328
1403636862681666560,-0.14451326206513049,0.3204424506661589,0.02583087292951608,9.0629790416666669,-0.098066500000000001,-4.4620257499999996
1403636862686666496,-0.14102260356114182,0.31764992386296798,0.032114058236695664,8.834157208333334,-0.22882183333333334,-4.4375091250000001
1403636862691666432,-0.13334315485236678,0.31276300195738388,0.043284165449459372,8.8178127916666664,-0.32688833333333334,-4.4129924999999997
1403636862696666624,-0.1228711793404008,0.31136673855578839,0.064228116473391328,8.6707130416666658,-0.4903325,-4.2985815833333332
1403636862701666560,-0.10471975511965977,0.30298915814621558,0.094945911308491532,8.5563021250000002,-0.50667691666666659,-4.1923428749999996
1403636862706666496,-0.085172067497323284,0.30438542154781112,0.13264502315156904,8.343824708333333,-0.45764366666666667,-4.0534153333333327
1403636862711666432,-0.066322511575784518,0.29461157773664276,0.17662732030182612,8.2375859999999985,-0.43312704166666666,-3.8409379166666664
1403636862716666624,-0.050265482457436693,0.28483773392547462,0.22619467105846514,8.2130693749999999,-0.40861041666666664,-3.7428714166666661
1403636862721666560,-0.0307177948351002,0.27157323161031771,0.26808257310632899,8.3029636666666669,-0.27785508333333331,-3.702010375
1403636862726666496,-0.014660765716752367,0.26529004630313807,0.3057816849494065,8.3765135416666663,-0.13075533333333333,-3.7101825833333333
1403636862731666432,-0.0055850536063818549,0.25761059759436306,0.32882003107573171,8.6053353749999992,0.040861041666666667,-3.7755602499999998
1403636862736666624,-0.0069813170079773184,0.24923301718479024,0.32742376767413622,8.8995348749999987,0.26151066666666667,-3.8409379166666664
1403636862741666560,-0.012566370614359173,0.23806290997202653,0.30368728984701332,9.1692177499999996,0.45764366666666667,-3.9144877916666663
1403636862746666496,-0.025132741228718346,0.228987197861656,0.26040312439755398,9.4470728333333334,0.59657120833333332,-4.0779319583333331
1403636862751666432,-0.038397243543875248,0.21781709064889232,0.21781709064889232,9.4797616666666666,0.58839899999999989,-4.1596540416666663
1403636862756666624,-0.046774823953448029,0.20315632493213995,0.18081611050661253,9.5696559583333336,0.67829329166666663,-4.2740649583333337
1403636862761666560,-0.05375614096142535,0.18291050560900574,0.15987215948268058,9.3571785416666664,0.57205458333333326,-4.2658927499999999
1403636862766666496,-0.064228116473391328,0.16964600329384885,0.15009831567151233,9.2754564583333323,0.48216029166666663,-4.2332039166666666
1403636862771666432,-0.072605696882964116,0.15149457907310779,0.15358897417550099,9.0139457916666661,0.31871612500000002,-4.2005150833333333
1403636862776666624,-0.07749261878854824,0.14241886696273731,0.14940018397071461,9.0057735833333332,0.24516625,-4.2332039166666666
1403636862781666560,-0.084473935796525554,0.14172073526193954,0.15149457907310779,8.793296166666666,0.21247741666666667,-4.1514818333333334
1403636862786666496,-0.087266462599716474,0.14451326206513049,0.14940018397071461,8.6788852500000004,0.196133,-4.0779319583333331
1403636862791666432,-0.094247779607693802,0.14381513036433274,0.15777776438028737,8.343824708333333,0.081722083333333334,-3.9144877916666663
1403636862796666624,-0.099832833214075656,0.14241886696273731,0.16545721308906244,8.2866192499999993,-0.040861041666666667,-3.8409379166666664
1403636862801666560,-0.10192722831646883,0.13683381335635544,0.18570303241219666,8.0986584583333325,-0.15527195833333335,-3.8409379166666664
1403636862806666496,-0.096342174710086978,0.13055062804917586,0.20804324683772407,8.2130693749999999,-0.24516625,-3.8899711666666663
1403636862811666432,-0.087964594300514204,0.1361356816555577,0.23457225146803787,8.1722083333333337,-0.30237170833333332,-3.881798958333333
1403636862816666624,-0.075398223686155036,0.1340412865531645,0.26040312439755398,8.2457582083333332,-0.34323275000000003,-3.881798958333333
1403636862821666560,-0.067020643276582248,0.13683381335635544,0.28344147052387908,8.2130693749999999,-0.43312704166666666,-3.857282333333333
1403636862826666496,-0.05375614096142535,0.13823007675795088,0.30438542154781112,8.2866192499999993,-0.392266,-3.8899711666666663
1403636862831666432,-0.043284165449459372,0.14521139376592823,0.32323497746934982,8.0904862499999997,-0.34323275000000003,-3.8409379166666664
1403636862836666624,-0.034208453339088861,0.14660765716752369,0.3302162944773272,8.0986584583333325,-0.18796079166666665,-3.906315583333333
1403636862841666560,-0.032812189937493394,0.15289084247470325,0.33719761148530447,7.9842475416666669,0.0081722083333333334,-3.9144877916666663
1403636862846666496,-0.034906585039886591,0.14940018397071461,0.33370695298131581,8.0496252083333317,0.21247741666666667,-3.9635210416666666
1403636862851666432,-0.043982297150257102,0.15498523757709648,0.30717794835100198,8.0577974166666664,0.34323275000000003,-3.97169325
1403636862856666624,-0.057246799465414,0.15219271077390556,0.26947883650792448,8.0986584583333325,0.38409379166666668,-3.8899711666666663
1403636862861666560,-0.067020643276582248,0.14940018397071461,0.23177972466484695,8.0659696249999993,0.40043820833333332,-3.7919046666666665
1403636862866666496,-0.068416906678177722,0.1361356816555577,0.20525072003453312,8.0005919583333327,0.35957716666666667,-3.67749375
1403636862871666432,-0.062831853071795868,0.14102260356114182,0.18779742751458986,7.9188698749999995,0.26968287499999999,-3.5630828333333331
1403636862876666624,-0.05375614096142535,0.14381513036433274,0.18919369091618532,7.8616644166666658,0.057205458333333334,-3.5794272499999997
