#timestamp [ns],w_RS_S_x [rad s^-1],w_RS_S_y [rad s^-1],w_RS_S_z [rad s^-1],a_RS_S_x [m s^-2],a_RS_S_y [m s^-2],a_RS_S_z [m s^-2]
1520520700796510216,-0.0753743066,-0.0280834893,-0.0693625665,0.0325766272,0.7866382610,10.0133812585
1520520700801526216,-0.0884309470,-0.0246123908,-0.0617363348,-0.0071081073,0.7410740157,9.9847583614
1520520700806542216,-0.0979718187,-0.0211319011,-0.0570926420,-0.1237571755,0.6859226413,9.9231917680
1520520700811558216,-0.1037481360,-0.0214386618,-0.0522143044,-0.1105289307,0.7039087174,9.8231010922
1520520700816571216,-0.1050063042,-0.0234824880,-0.0508748029,-0.0852750087,0.6907162058,9.7717338148
1520520700821588216,-0.1052508756,-0.0199925280,-0.0484127461,-0.1153392015,0.6763288623,9.7023118360
1520520700826605216,-0.1004678866,-0.0153350608,-0.0459511314,-0.1610367746,0.6547478937,9.6446704785
1520520700831620216,-0.0911637611,-0.0118391742,-0.0443184477,-0.1947086706,0.6499539545,9.6159492986
1520520700836635216,-0.0808594506,-0.0100824597,-0.0459475202,-0.2091394831,0.6403619550,9.5405597570
1520520700841653216,-0.0687956562,-0.0094971501,-0.0451538391,-0.1874932643,0.6847284648,9.5437922323
1520520700846668216,-0.0512004297,-0.0074556655,-0.0432771269,-0.1345802849,0.6775295012,9.5153927709
1520520700851684216,-0.0358727889,-0.0100786764,-0.0408906917,-0.1622393423,0.6811290767,9.4866048804
1520520700856700216,-0.0182769899,-0.0074536943,-0.0392800792,-0.1911009674,0.6799321841,9.4799141073
1520520700861716216,-0.0006859386,-0.0068618481,-0.0401199413,-0.2199625925,0.6871292745,9.4743772929
1520520700866730216,0.0181604190,-0.0071436632,-0.0409688063,-0.1886958320,0.7099105074,9.4484835770
1520520700871747216,0.0372608001,-0.0065563252,-0.0399176476,-0.1261623109,0.7446807093,9.4710838823
1520520700876763216,0.0541027025,-0.0039316385,-0.0383056349,-0.1309725818,0.7458802244,9.4978588441
1520520700881779216,0.0681824741,0.0004410007,-0.0369456956,-0.0660339253,0.7254897796,9.5390838322
1520520700886794216,0.0807514614,0.0027740860,-0.0358690635,-0.0828698733,0.7254910908,9.5578420063
1520520700891810216,0.0905591960,0.0068522101,-0.0339623213,-0.1478085298,0.6967167783,9.6096364774
1520520700896826216,0.0968508209,0.0147271528,-0.0358077873,-0.1935061029,0.6787332310,9.6530981360
1520520700901842216,0.1016292858,0.0188142343,-0.0379498990,-0.1971138060,0.7015171800,9.6670567611
1520520700906858216,0.1046531399,0.0237638537,-0.0360238860,-0.2524319208,0.6835343820,9.6827206052
1520520700911874216,0.1041584615,0.0295913473,-0.0359784908,-0.2367985405,0.6943254283,9.7104493703
1520520700916888216,0.1034004329,0.0278485722,-0.0381547963,-0.2452165145,0.7207071732,9.7686127780
1520520700921904216,0.1021384855,0.0246464923,-0.0395296461,-0.1923035351,0.7183047713,9.8006401249
1520520700926921216,0.0978713333,0.0284335458,-0.0397633576,-0.1923035351,0.7231013330,9.7274203784
1520520700931937216,0.0958629696,0.0310603180,-0.0416334373,-0.2259754311,0.7147099725,9.7161348658
1520520700936952216,0.0933492835,0.0328178386,-0.0454030741,-0.2319882697,0.7003207557,9.6836673925
1520520700941969216,0.0930947817,0.0337064624,-0.0508068561,-0.1995189414,0.7374915801,9.6670450911
1520520700946985216,0.0923400070,0.0337090807,-0.0518876395,-0.2007215091,0.7638727630,9.6251938883
1520520700952000216,0.0930888501,0.0322626515,-0.0556877976,-0.1369854203,0.7770583437,9.6373442411
1520520700957016216,0.0958476839,0.0290621468,-0.0570701150,-0.0924904150,0.8070333889,9.6403683524
1520520700962032216,0.0955973966,0.0296440890,-0.0567946562,-0.1033135244,0.7614668957,9.6963010426
1520520700967047216,0.0955962126,0.0302334139,-0.0592251231,-0.2043292123,0.7722670270,9.7065708949
1520520700972064216,0.0938378304,0.0328646551,-0.0627189449,-0.2031266446,0.7542798270,9.7251710332
1520520700977079216,0.0893139340,0.0363769796,-0.0691769684,-0.2584447593,0.7410935907,9.7803430944
1520520700982096216,0.0835372326,0.0401692698,-0.0715722467,-0.2223677280,0.7362942192,9.8288066661
1520520700987110216,0.0780056749,0.0410550976,-0.0766956816,-0.2019240768,0.7087123972,9.8228238552
1520520700992127216,0.0689590151,0.0448563060,-0.0828725350,-0.2223677280,0.6643457938,9.8869840242
1520520700997143216,0.0563944383,0.0498260446,-0.0906572374,-0.2319882697,0.6475585771,9.9219583540
1520520701002158216,0.0418236892,0.0559517926,-0.0951827629,-0.2043292123,0.7171065675,9.9588099226
1520520701007174216,0.0275079751,0.0635287342,-0.0975332725,-0.2079369154,0.7255008314,9.9297832535
1520520701012189216,0.0169641152,0.0713919813,-0.0974536468,-0.2608498948,0.6871324589,9.8559584818
1520520701017205216,0.0116878944,0.0716791130,-0.0966299848,-0.3077500356,0.6739455670,9.8087799396
1520520701022222216,0.0058988319,0.0670241657,-0.1001719162,-0.2704704365,0.6523581359,9.7410337816
1520520701027237216,0.0056396178,0.0626598552,-0.1026397088,-0.2091394831,0.6751370273,9.6648752493
1520520701032254216,0.0119110408,0.0527472299,-0.0997509570,-0.1417956912,0.7302922418,9.5932751953
1520520701037268216,0.0194427372,0.0439933507,-0.0941501874,-0.1405931235,0.7614697992,9.5083965788
1520520701042285216,0.0282248079,0.0291136044,-0.0858929773,-0.1309725818,0.7662656116,9.4571639270
1520520701047301216,0.0425296899,0.0101573692,-0.0779477042,-0.1550239360,0.7662674848,9.4818030511
1520520701052317216,0.0560772019,-0.0105438264,-0.0713670989,-0.1598342069,0.7830558254,9.4829956446
1520520701057333216,0.0723884679,-0.0335837564,-0.0615628615,-0.0985032535,0.8346140869,9.5090777160
1520520701062348216,0.0834254889,-0.0563431106,-0.0485000491,-0.1153392015,0.8561999258,9.5405984255
1520520701067363216,0.0899394407,-0.0782271697,-0.0365043500,-0.2067343477,0.8178345504,9.6228755054
1520520701072380216,0.0969554256,-0.0977675724,-0.0290910799,-0.2849012490,0.7710741618,9.6794648481
1520520701077396216,0.0994459695,-0.1167175086,-0.0251820592,-0.2620524625,0.7842629269,9.7315260673
1520520701082410216,0.0949135619,-0.1269337647,-0.0192994565,-0.1886958320,0.7746640902,9.7761450277
1520520701087427216,0.0841019845,-0.1342364517,-0.0141945925,-0.1466059620,0.8034401823,9.8837866744
1520520701092443216,0.0702760560,-0.1394955294,-0.0109623875,-0.1177443369,0.8106327770,9.9439302226
1520520701097460216,0.0546977633,-0.1412652378,-0.0052653253,-0.1033135244,0.8214239169,10.0228050268
1520520701102475216,0.0353566253,-0.1404241604,0.0042463880,-0.1622393423,0.8394156126,10.0349824740
1520520701107491216,0.0157673170,-0.1354957853,0.0108136863,-0.1261623109,0.8274213986,10.0311565838
1520520701112507216,-0.0038181180,-0.1270678822,0.0163254781,-0.1454033943,0.8154314929,10.0708684526
1520520701117521216,-0.0256665204,-0.1203928145,0.0231808614,-0.1249597432,0.8550015346,10.0473879993
1520520701122538216,-0.0452512536,-0.1122599380,0.0300431596,-0.1225546078,0.8370142410,10.0241392502
1520520701127554216,-0.0598082500,-0.1026674414,0.0366366929,-0.1706573163,0.7962472130,9.9537564288
1520520701132570216,-0.0700996701,-0.0951005794,0.0386074500,-0.1369854203,0.8154308373,9.9080863636
1520520701137584216,-0.0793826019,-0.0875442500,0.0446345287,-0.0684390607,0.8298151837,9.8562708093
1520520701142601216,-0.0833965303,-0.0863977695,0.0511439901,-0.0335645970,0.8681849611,9.8431103603
1520520701147618216,-0.0858997607,-0.0826260523,0.0568590213,0.0265637886,0.8789725419,9.8285688560
1520520701152633216,-0.0876501963,-0.0803138760,0.0636437204,0.0145381115,0.8525923892,9.7891987376
1520520701157648216,-0.0904033220,-0.0771323106,0.0720602311,-0.0083106751,0.8609881517,9.7603593494
1520520701162664216,-0.0906563890,-0.0815170172,0.0771677236,-0.0576159513,0.8070306727,9.7515947254
1520520701167680216,-0.0886465276,-0.0823925684,0.0779689582,-0.0552108159,0.7902425195,9.7318312388
1520520701172697216,-0.0866329732,-0.0815241830,0.0804068068,-0.0347671647,0.8358082634,9.7408849696
1520520701177712216,-0.0866307738,-0.0800679888,0.0806884681,-0.0299568939,0.8406044504,9.7187527368
1520520701182727216,-0.0836114949,-0.0783228708,0.0823194813,-0.0131209459,0.8561919647,9.7650594228
1520520701187744216,-0.0793357218,-0.0765772605,0.0839481609,-0.0263491907,0.8633878375,9.7233439800
1520520701192760216,-0.0732903031,-0.0690120116,0.0888645859,-0.1285674464,0.8334172880,9.6581259379
1520520701197776216,-0.0642394484,-0.0640461891,0.0856390255,-0.2247728634,0.8178359553,9.6683746955
1520520701202791216,-0.0549339939,-0.0561642375,0.0816235916,-0.2211651602,0.8190348147,9.5997719177
1520520701207807216,-0.0418598920,-0.0485707368,0.0770578420,-0.1935061029,0.8622017158,9.6168927645
1520520701212823216,-0.0297948548,-0.0430136794,0.0711256682,-0.1874932643,0.8598029666,9.5761615395
1520520701217837216,-0.0179775999,-0.0360048969,0.0670988978,-0.2608498948,0.8274318885,9.5838799838
1520520701222854216,-0.0041517067,-0.0275260207,0.0584802288,-0.3245859836,0.7770729547,9.6275487904
1520520701227871216,0.0089154992,-0.0207877344,0.0468736167,-0.2945217907,0.8142439663,9.6330306342
1520520701232886216,0.0189637711,-0.0181372972,0.0379469409,-0.2283805665,0.8478147468,9.5870305004
1520520701237902216,0.0267511887,-0.0151978184,0.0295677806,-0.2151523217,0.8058438018,9.5846183837
1520520701242918216,0.0310253505,-0.0084709908,0.0209535086,-0.2476216499,0.7602789945,9.6686532198
1520520701247934216,0.0362984625,-0.0055281260,0.0109557401,-0.1959112383,0.7962491798,9.7204113002
1520520701252950216,0.0385521544,-0.0078422906,0.0049817452,-0.1081237952,0.8753856106,9.7218039426
1520520701257965216,0.0350381538,-0.0034670736,0.0028572584,-0.1454033943,0.8562022673,9.7640226911
1520520701262982216,0.0292632597,0.0029535048,-0.0016823793,-0.2223677280,0.8094417850,9.8089788892
1520520701267996216,0.0242465275,0.0117018127,-0.0048529030,-0.2993320616,0.7818675495,9.8283492109
1520520701273013216,0.0177240331,0.0245405681,-0.0123182375,-0.4051580203,0.7459015789,9.9003051172
1520520701278029216,0.0091834523,0.0330135955,-0.0219775517,-0.4280068069,0.7363102350,9.9191311713
1520520701283043216,-0.0006146420,0.0379771328,-0.0270619291,-0.3594604472,0.7530928623,9.9265826200
1520520701288060216,-0.0078964509,0.0443942068,-0.0305165829,-0.3245859836,0.7662806909,9.8983388557
1520520701293076216,-0.0101478414,0.0534327970,-0.0328783798,-0.3750938275,0.7590897820,9.8767567490
1520520701298092216,-0.0149218057,0.0575263352,-0.0387903986,-0.3847143692,0.7554931100,9.8257195635
1520520701303107216,-0.0151757429,0.0560714994,-0.0396126849,-0.3438270670,0.7818710149,9.7857829717
1520520701308123216,-0.0121614742,0.0560770514,-0.0412415610,-0.3173705773,0.7914620778,9.8273532881
1520520701313139216,-0.0109079282,0.0537457391,-0.0409911334,-0.2740781396,0.8166406549,9.7525301368
1520520701318154216,-0.0051358842,0.0487981087,-0.0423923900,-0.2452165145,0.8178375475,9.7011137122
1520520701323171216,0.0003827047,0.0421013443,-0.0435359724,-0.1947086706,0.8166344734,9.6657589505
1520520701328187216,0.0041399986,0.0324842180,-0.0425341515,-0.1670496132,0.8226280213,9.6898889105
1520520701333202216,0.0063880881,0.0205295974,-0.0393829478,-0.1381879881,0.8286214756,9.6954128623
1520520701338218216,0.0101455074,0.0085704684,-0.0343407231,-0.1874932643,0.8610021071,9.6482132953
1520520701343237216,0.0121467439,0.0006987748,-0.0325106589,-0.2836986813,0.8442216339,9.7142461320
1520520701348250216,0.0113855907,-0.0036679179,-0.0341658804,-0.2957243585,0.7710750047,9.7214073760
1520520701353266216,0.0106216227,-0.0097814609,-0.0363755322,-0.2512293531,0.8262319988,9.7174340674
1520520701358282216,0.0118645679,-0.0191023598,-0.0375311881,-0.1598342069,0.8921776039,9.7664523595
1520520701363297216,0.0098443605,-0.0284369219,-0.0340814964,-0.0900852795,0.8861764695,9.8018057755
1520520701368313216,0.0038100562,-0.0339901595,-0.0287016158,-0.1369854203,0.8981715265,9.8638442089
1520520701373329216,-0.0047401376,-0.0407055491,-0.0249492356,-0.1850881289,0.9005735537,9.8898772395
1520520701378345216,-0.0137918234,-0.0444978208,-0.0246907878,-0.2259754311,0.8705982276,9.8810072932
1520520701383360216,-0.0271186668,-0.0497450467,-0.0257882505,-0.1514162329,0.8729907015,9.9093328399
1520520701388377216,-0.0391851898,-0.0526628894,-0.0260586246,-0.0888827118,0.8909729375,9.9784352741
1520520701393392216,-0.0547721858,-0.0579161005,-0.0252580656,-0.0792621701,0.9281455414,10.0085211270
1520520701398408216,-0.0711083779,-0.0623071082,-0.0201207028,-0.1297700141,0.8969718241,10.0171781499
1520520701403423216,-0.0844276588,-0.0637743480,-0.0182132606,-0.1225546078,0.8993695430,10.0171055808
1520520701408440216,-0.0927130440,-0.0594119281,-0.0162706912,-0.0504005450,0.8825759575,10.0826618536
1520520701413456216,-0.1153345608,-0.0637959276,-0.0146387570,-0.0636287899,0.9233477621,9.8886728113
1520520701418471216,-0.1299179885,-0.0699214415,-0.0143878260,0.0782742003,0.9041504635,9.9465796658
1520520701423487216,-0.1316654289,-0.0641068235,-0.0097408170,0.0446023043,0.8825685583,9.9248477203
1520520701428503216,-0.1407075724,-0.0626621864,-0.0064663488,0.0001072989,0.8837711642,9.8427674173
1520520701433518216,-0.1437275179,-0.0673320762,-0.0040614044,-0.0263491907,0.8406041694,9.8825799192
1520520701438535216,-0.1391997402,-0.0644179156,-0.0035064828,-0.0876801441,0.7794527845,9.8042107245
1520520701443550216,-0.1349362811,-0.0699489057,-0.0049093852,-0.0143235136,0.8094255818,9.7627924442
1520520701448567216,-0.1324214503,-0.0705394314,-0.0016719478,-0.0215389199,0.8130235651,9.7744806060
1520520701453582216,-0.1216124368,-0.0696676001,0.0007495654,0.0073227052,0.8525929512,9.7590532251
1520520701458598216,-0.1118101987,-0.0684982222,0.0007402555,0.0614382523,0.8058222600,9.7399777985
1520520701463614216,-0.0999923361,-0.0641257406,0.0018338494,0.0421971689,0.7842392309,9.7378618396
1520520701468630216,-0.0859137524,-0.0606272550,0.0031871194,-0.0022978365,0.7434719219,9.7673882831
1520520701473646216,-0.0735911360,-0.0545055409,0.0040225724,0.0446023043,0.7254811628,9.7983272127
1520520701478662216,-0.0655475936,-0.0530454676,0.0040187527,0.0963127160,0.6847063611,9.7734586298
1520520701483676216,-0.0572441315,-0.0460526321,0.0054094344,0.1335923151,0.6859025980,9.8253910817
1520520701488692216,-0.0506917125,-0.0341113194,0.0084644509,0.1937207007,0.7338635320,9.8619476618
1520520701493709216,-0.0476583632,-0.0250954283,0.0152914133,0.2574567895,0.7578413765,9.9019789454
1520520701498725216,-0.0438676008,-0.0146274183,0.0240219122,0.1516308308,0.7566504781,9.9250908949
1520520701503741216,-0.0453581087,-0.0038555227,0.0273535174,0.0530202783,0.7446667540,9.9434945622
1520520701508756216,-0.0473512103,0.0083796545,0.0282622585,-0.0059055396,0.7074979902,9.9847793979
1520520701513772216,-0.0508468240,0.0249871942,0.0283955085,-0.0335645970,0.7098984252,9.9025340548
1520520701518788216,-0.0520887029,0.0389877278,0.0230936323,0.0373868980,0.7986292906,9.8889733418
1520520701523804216,-0.0488134911,0.0494985184,0.0158628568,0.0025124344,0.8705804322,9.8241625667
1520520701528820216,-0.0465404010,0.0599987170,0.0124215907,0.0409946012,0.9089499286,9.7389140773
1520520701533835216,-0.0430171914,0.0675935755,0.0059797553,0.0169432469,0.9749045251,9.7472188725
1520520701538851216,-0.0357283728,0.0716903827,0.0005864256,0.0133355438,0.9521211380,9.7472762051
1520520701543867216,-0.0264254234,0.0787025513,-0.0050589530,-0.0287543262,0.9317390289,9.7302736015
1520520701548883216,-0.0196455299,0.0810639662,-0.0153345139,-0.0383748679,0.9185492336,9.7489744080
1520520701553898216,-0.0131226551,0.0790537863,-0.0253724084,0.0397920335,0.8981577585,9.7226662911
1520520701558914216,-0.0098645599,0.0761572464,-0.0313527164,0.0037150021,0.9065545512,9.6834963630
1520520701563929216,-0.0038439848,0.0706335013,-0.0351937989,0.0013098666,0.8909659130,9.7428043162
1520520701568945216,0.0009238361,0.0680238377,-0.0392808628,-0.0311594616,0.8585916504,9.7338547732
1520520701573962216,0.0039313813,0.0660028098,-0.0457951266,-0.0071081073,0.8453992326,9.7603628458
1520520701578978216,0.0036747664,0.0648495566,-0.0504028325,0.0001072989,0.7902382111,9.7917242918
1520520701583992216,0.0019093471,0.0631136720,-0.0552827300,-0.0576159513,0.7998358302,9.7946010677
1520520701589010216,0.0021568236,0.0622483581,-0.0585364168,-0.0359697325,0.7842453188,9.7641898353
1520520701594026216,0.0006454238,0.0599181480,-0.0590924929,-0.0600210867,0.7734549282,9.7714073242
1520520701599041216,0.0054239279,0.0622489095,-0.0582719383,0.0193483823,0.7938341338,9.7717770556
1520520701604056216,-0.0038848276,0.0514509274,-0.0534670975,0.0590331169,0.7626533921,9.8446362607
1520520701609073216,-0.0026325245,0.0441478673,-0.0464908150,0.0578305492,0.7842380133,9.7981411595
1520520701614089216,-0.0043892052,0.0426756869,-0.0410877454,0.0001072989,0.8082253175,9.6940866595
1520520701619103216,-0.0119371047,0.0347995235,-0.0389693999,-0.1466059620,0.7710633909,9.7548202676
1520520701624120216,-0.0144588042,0.0283880794,-0.0390136405,-0.1550239360,0.7003147615,9.7026747161
1520520701629136216,-0.0134584898,0.0257703830,-0.0406587906,-0.1826829934,0.6787323881,9.7633964661
1520520701634151216,-0.0212630512,0.0155703293,-0.0412632219,-0.0973006858,0.7003102658,9.6997885855
1520520701639168216,-0.0318281637,0.0068202878,-0.0396870367,-0.0768570347,0.6955121119,9.6775135417
1520520701644183216,-0.0336144906,-0.0138716166,-0.0387594251,-0.0552108159,0.7362812004,9.7342081469
1520520701649200216,-0.0419314704,-0.0348691202,-0.0334931675,-0.1670496132,0.6979174173,9.4645545947
1520520701654215216,-0.0595597421,-0.0628511120,-0.0328622754,-0.1634419100,0.6643412044,9.7701960810
1520520701659231216,-0.0525285185,-0.0651728756,-0.0353280414,-0.1959112383,0.7123093502,9.6728452518
1520520701664253216,-0.0724016690,-0.0791620119,-0.0372916996,-0.1261623109,0.6475503350,9.6780402226
1520520701669262216,-0.0940439396,-0.0995579264,-0.0409242740,-0.1778727226,0.6019870263,9.6692908233
1520520701674278216,-0.0975666043,-0.1004225318,-0.0449825976,-0.1658470455,0.5827998430,9.6227067240
1520520701679294216,-0.1033532949,-0.1047926505,-0.0460873928,-0.1105289307,0.6043800622,9.5768236291
1520520701684308216,-0.1204649300,-0.1208203955,-0.0480717466,-0.1177443369,0.5636098498,9.6083115037
1520520701689326216,-0.1232473451,-0.1348108495,-0.0470911371,-0.0022978365,0.6499389689,9.5083213898
1520520701694342216,-0.1245033610,-0.1365691186,-0.0435850454,-0.0479954096,0.5779941026,9.5041877664
1520520701699358216,-0.1275225185,-0.1421197178,-0.0387518572,-0.1417956912,0.4736761912,9.4610410231
1520520701704373216,-0.1305440909,-0.1476623043,-0.0368946739,-0.2235702957,0.4089289772,9.4607379673
1520520701709389216,-0.1287910679,-0.1511538589,-0.0385478933,-0.1718598840,0.3609593329,9.3917149302
1520520701714404216,-0.1242731462,-0.1558171528,-0.0375096801,-0.1009083890,0.3381701389,9.3922086932
1520520701719421216,-0.1169879500,-0.1599038790,-0.0337666958,-0.1141366338,0.2518330587,9.3726651940
1520520701724436216,-0.1107042170,-0.1640033824,-0.0254225643,-0.0287543262,0.1942676685,9.4602132038
1520520701729452216,-0.0956105076,-0.1579031666,-0.0162053224,0.0999204191,0.1606817151,9.5403435811
1520520701734467216,-0.0795040365,-0.1465590924,-0.0064088401,0.1961258361,0.1606742223,9.5382450326
1520520701739484216,-0.0626338209,-0.1305642253,0.0077505457,0.2971415240,0.1630646357,9.5883938032
1520520701744501216,-0.0432454694,-0.1107803748,0.0219341644,0.2526465187,0.1522758373,9.5899995583
1520520701749515216,-0.0228552197,-0.0924486825,0.0344815254,0.2658747635,0.1426816836,9.5666372783
1520520701754531216,-0.0044822214,-0.0781927907,0.0453782216,0.3584724774,0.1858435271,9.5563967411
1520520701759546216,0.0164015580,-0.0683190655,0.0608361845,0.4366393787,0.2505910220,9.5485999044
1520520701764562216,0.0327601982,-0.0599047636,0.0765619790,0.3704981545,0.2422021904,9.5376304283
1520520701769580216,0.0418280086,-0.0523609146,0.0898597260,0.2766978729,0.2014387214,9.6362032724
1520520701774595216,0.0498890948,-0.0418854034,0.0964179235,0.2057463779,0.2206304942,9.6868473514
1520520701779611216,0.0602116078,-0.0311154363,0.1021625058,0.1925181330,0.2937790902,9.6996883608
1520520701784626216,0.0640022447,-0.0183054236,0.1068526009,0.2249874613,0.4076949016,9.7980434731
1520520701789643216,0.0680490262,0.0003425762,0.1077990485,0.2562542218,0.4268787133,9.8186390234
1520520701794657216,0.0698326245,0.0187019474,0.1073947440,0.2526465187,0.4592557857,9.8500204532
1520520701799673216,0.0708701123,0.0423037595,0.1078434929,0.2526465187,0.4652514878,9.8488524625
1520520701804690216,0.0721445501,0.0530745529,0.1119816019,0.2670773312,0.4868348915,9.8556638175
1520520701809706216,0.0716621818,0.0647151684,0.1174823767,0.2249874613,0.4892364504,9.8432875723
1520520701814720216,0.0694166366,0.0757832522,0.1189237839,0.1384025859,0.4544681217,9.8092999286
1520520701819737216,0.0666612763,0.0807284219,0.1216721693,0.0361843303,0.4412855381,9.7998484255
1520520701824753216,0.0636533430,0.0853850222,0.1233366147,0.0458048720,0.4820555632,9.7822828682
1520520701829769216,0.0603931856,0.0888738008,0.1258042722,0.0470074397,0.5228262440,9.7775828298
1520520701834784216,0.0561254140,0.0909067197,0.1277215894,0.0121329761,0.5635997345,9.7488289200
1520520701839800216,0.0526028317,0.0879929529,0.1271648008,0.0361843303,0.6019703549,9.7590166956
1520520701844816216,0.0450579313,0.0850827098,0.1247216586,-0.0516031127,0.6139685963,9.7366165923
1520520701849832216,0.0400160810,0.0766451581,0.1192556057,-0.1490110975,0.6523486763,9.6956901006
1520520701854848216,0.0344667992,0.0667599563,0.1102622741,-0.1947086706,0.6835298864,9.6914559142
1520520701859863216,0.0299224931,0.0568758769,0.1009965298,-0.2524319208,0.7051189097,9.6617809659
1520520701864879216,0.0216066817,0.0458262393,0.0911878022,-0.3065474679,0.7027248435,9.6193107059
1520520701869895216,0.0137885910,0.0336221870,0.0773110603,-0.2957243585,0.6931308772,9.6610518974
1520520701874911216,0.0087383079,0.0243345199,0.0629103236,-0.2608498948,0.7326997950,9.6595117186
1520520701879926216,0.0024341220,0.0153304607,0.0512196025,-0.2416088114,0.7219060326,9.6941992804
1520520701884942216,-0.0051262953,0.0060323394,0.0403406296,-0.2031266446,0.7231021760,9.7612278986
1520520701889959216,-0.0136865017,-0.0012352252,0.0327256360,-0.0732493316,0.7626636946,9.7785194676
1520520701894975216,-0.0229931323,-0.0056008948,0.0294630077,-0.0215389199,0.8214175480,9.8674439370
1520520701899991216,-0.0345649729,-0.0128827526,0.0267234409,-0.0467928419,0.7542676512,9.8898359613
1520520701905006216,-0.0478915929,-0.0166672284,0.0234727264,-0.1177443369,0.6955152964,9.8998810089
1520520701910022216,-0.0664921441,-0.0178305827,0.0199812749,-0.1225546078,0.6727320030,9.9441115168
1520520701915037216,-0.0845878082,-0.0166597500,0.0154244911,-0.1778727226,0.6187749923,9.9737561686
1520520701920053216,-0.1057083378,-0.0210205774,0.0086667022,-0.1466059620,0.5875949061,9.9769686718
1520520701925070216,-0.1298444965,-0.0250897449,0.0013756452,-0.0876801441,0.5540143849,9.9287799634
1520520701930085216,-0.1552314804,-0.0274220240,-0.0018415512,-0.0395774356,0.5384218130,9.9445969779
1520520701935100216,-0.1808712608,-0.0315056223,-0.0039894357,-0.0564133836,0.4808643839,9.9622491363
1520520701940117216,-0.2052555585,-0.0361707691,-0.0064146460,-0.0804647378,0.4053204104,9.9590704739
1520520701945133216,-0.2291348827,-0.0390874118,-0.0088274512,-0.0131209459,0.3597478294,9.9503244180
1520520701950148216,-0.2512504538,-0.0393845467,-0.0098707862,-0.0167286490,0.3513541274,9.9317734153
1520520701955164216,-0.2665755503,-0.0376480727,-0.0076646104,-0.0179312168,0.3045877445,9.9202092850
1520520701960180216,-0.2801450716,-0.0373627332,-0.0073666384,-0.0395774356,0.2314418646,9.8461140926
1520520701965195216,-0.2856703487,-0.0359123472,-0.0057219797,-0.0035004042,0.1822742974,9.8214058608
1520520701970212216,-0.2864270170,-0.0379523343,-0.0057361411,0.0506151429,0.2182442954,9.7592504235
1520520701975228216,-0.2818936175,-0.0344714301,0.0007752364,0.0157406792,0.2374332584,9.6886803795
1520520701980243216,-0.2763558577,-0.0312800597,0.0067414321,-0.0263491907,0.1798777961,9.6589304420
1520520701985259216,-0.2632906082,-0.0336089300,0.0077815614,-0.0395774356,0.1487011754,9.5568209324
1520520701990275216,-0.2497272459,-0.0382643090,0.0071796972,-0.0371723002,0.1151250562,9.5475331122
1520520701995291216,-0.2328948817,-0.0394130525,0.0033518919,-0.0852750087,0.1391116111,9.5607615112
1520520702000307216,-0.2158124929,-0.0408501684,-0.0015607869,-0.1333777172,0.1726912893,9.4856576149
1520520702005322216,-0.1967170280,-0.0396611222,-0.0075393752,-0.0792621701,0.1786827767,9.4769900330
1520520702010338216,-0.1758640982,-0.0393440835,-0.0140689917,-0.0960981181,0.1906754922,9.4527371873
1520520702015353216,-0.1532543191,-0.0401897085,-0.0214224052,-0.0732493316,0.1846780106,9.4653042215
1520520702020371216,-0.1339063675,-0.0381264102,-0.0273947910,0.0097278406,0.2458277096,9.5085984065
1520520702025386216,-0.1135507624,-0.0363635723,-0.0298541701,0.0470074397,0.2530196487,9.5105528217
1520520702030403216,-0.0911845982,-0.0372347908,-0.0277380106,0.0590331169,0.2961877673,9.5568794330
1520520702035416216,-0.0673122719,-0.0404415938,-0.0237486148,0.0205509501,0.3141778708,9.5676957503
1520520702040433216,-0.0431879019,-0.0442361664,-0.0178703106,0.0181458146,0.3489531304,9.5211994915
1520520702045449216,-0.0198191886,-0.0494886854,-0.0117311758,0.0217535178,0.3717365175,9.5362500302
1520520702050465216,0.0020491726,-0.0471563279,-0.0090485371,-0.0648313576,0.3633492780,9.5661545785
1520520702055481216,0.0214077525,-0.0442501986,-0.0033807802,-0.0636287899,0.3561543418,9.6637699817
1520520702060497216,0.0375016508,-0.0384256765,0.0001509079,-0.1442008266,0.3897365489,9.7772494425
1520520702065511216,0.0488183192,-0.0346434451,0.0039464480,-0.0985032535,0.4400968876,9.8429977435
1520520702070528216,0.0593852742,-0.0264849138,0.0056123674,-0.1309725818,0.4353028547,9.8386698816
1520520702075545216,0.0659323732,-0.0171602344,0.0064830090,-0.1249597432,0.4676791779,9.9431727400
1520520702080560216,0.0679544663,-0.0087100239,0.0068142906,-0.1189469046,0.5372288541,9.9895321512
1520520702085574216,0.0667134107,0.0011900019,0.0093271222,-0.0888827118,0.5636076019,10.0356995575
1520520702090591216,0.0601930607,0.0113873573,0.0088759732,-0.0479954096,0.6103708940,10.0805795956
1520520702095607216,0.0501543115,0.0230475414,0.0057370148,-0.0588185190,0.6403502475,10.0725206999
1520520702100623216,0.0373531649,0.0352857693,0.0039603660,-0.0708441961,0.6415503246,10.0947173163
1520520702105639216,0.0210325683,0.0501611051,-0.0037417506,-0.1285674464,0.6079788884,10.1220412114
1520520702110656216,0.0044584775,0.0650436267,-0.0141488595,-0.1874932643,0.5792041076,10.1214806794
1520520702115670216,-0.0141305320,0.0778914965,-0.0267321633,-0.1538213683,0.5504221149,10.1130459943
1520520702120686216,-0.0339725621,0.0924835390,-0.0379470656,-0.1490110975,0.5192440893,10.0723545385
1520520702125702216,-0.0490433057,0.1032836258,-0.0470353685,-0.0828698733,0.5084466742,10.0054790790
1520520702130718216,-0.0621045839,0.1129167769,-0.0553246598,-0.0672364930,0.4952549119,9.9356111388
1520520702135733216,-0.0721489236,0.1193269404,-0.0566098125,-0.0347671647,0.4149099747,9.8458883635
1520520702140749216,-0.0756673738,0.1181556533,-0.0549888953,0.0109304084,0.3717373604,9.7130012568
1520520702145766216,-0.0754200385,0.1137784280,-0.0525877953,-0.0239440553,0.3213761788,9.6552826180
1520520702150782216,-0.0724094747,0.1076496079,-0.0485818923,0.0205509501,0.2518225688,9.6061073065
1520520702155797216,-0.0648701727,0.1023828734,-0.0394373491,0.1191615025,0.2949839439,9.4795938486
1520520702160813216,-0.0548138405,0.0979818075,-0.0267737072,0.1997335393,0.3777183579,9.4217838716
1520520702165828216,-0.0440113625,0.0851185023,-0.0095766547,0.2177720550,0.4388731146,9.4866287209
1520520702170845216,-0.0299361543,0.0742859707,0.0114175345,0.1720744819,0.4748508864,9.5067948801
1520520702175860216,-0.0161097360,0.0657866021,0.0316183375,0.1444154245,0.4484719513,9.6756006952
1520520702180877216,-0.0030467525,0.0535135079,0.0463807226,0.1552385339,0.5192203933,9.7904786102
1520520702185891216,0.0044920555,0.0441506362,0.0617166982,0.1083383931,0.5623931013,9.9140802703
1520520702190908216,0.0065132860,0.0420665694,0.0784712484,0.0470074397,0.5731901418,9.9530174546
1520520702195924216,0.0027596302,0.0493300381,0.0858385655,-0.0516031127,0.6055746133,10.0585386530
1520520702200939216,-0.0047654328,0.0592327015,0.0864692439,-0.1634419100,0.5696091110,10.1747145549
1520520702205956216,-0.0173150141,0.0726409366,0.0830777454,-0.2091394831,0.5612186871,10.1728432445
1520520702210970216,-0.0321294878,0.0869370078,0.0742861986,-0.1850881289,0.5276408820,10.1865876123
1520520702215985216,-0.0451866730,0.1000689585,0.0652119466,-0.1381879881,0.5096501229,10.1489600487
1520520702221003216,-0.0569849021,0.1143640258,0.0572264369,-0.1057186598,0.4820673644,10.0952122850
1520520702226019216,-0.0685402377,0.1216623208,0.0505398359,-0.0997058212,0.5108462663,10.0788556803
1520520702231034216,-0.0765859716,0.1216730104,0.0454143991,-0.0467928419,0.4340971581,9.9842818352
1520520702236049216,-0.0828724842,0.1208058651,0.0419023012,0.0037150021,0.4197035393,9.9245349132
1520520702241067216,-0.0866491841,0.1146816710,0.0432153468,0.0542228460,0.4256953077,9.8124716346
1520520702246082216,-0.0854113904,0.1001092948,0.0444545884,0.0409946012,0.4113066529,9.7754258157
1520520702251098216,-0.0851842452,0.0823349371,0.0443185134,0.0421971689,0.3585443806,9.7487362506
1520520702256114216,-0.0824385723,0.0671774688,0.0466326921,0.0674510909,0.2997845330,9.7101969916
1520520702261129216,-0.0741610672,0.0552310385,0.0476083273,0.0409946012,0.2602149595,9.6651694768
1520520702266144216,-0.0678956659,0.0429968066,0.0469621979,0.0506151429,0.2578159294,9.6581053113
1520520702271161216,-0.0606243284,0.0287116219,0.0506273743,0.0866921743,0.2314320303,9.6124562709
1520520702276177216,-0.0533539593,0.0135515552,0.0545564273,0.0854896066,0.2074493155,9.5834377639
1520520702281193216,-0.0448260375,0.0001446586,0.0568732098,0.1131486640,0.2386248123,9.6261374710
1520520702286207216,-0.0358010575,-0.0158779460,0.0567341381,0.1215666379,0.2913863353,9.6004369177
1520520702291224216,-0.0270241617,-0.0283989357,0.0547283889,0.1095409608,0.3525434335,9.5784135969
1520520702296241216,-0.0162363538,-0.0429697560,0.0567615327,0.1480231276,0.4172940193,9.6360830884
1520520702301256216,-0.0056997153,-0.0584191988,0.0604117493,0.2177720550,0.4796438890,9.6888020114
1520520702306273216,0.0045900661,-0.0712491931,0.0651646240,0.2225823258,0.5396005355,9.7677225131
1520520702311288216,0.0151374817,-0.0794169365,0.0699526014,0.1877078622,0.5587894985,9.8052318569
1520520702316302216,0.0254366761,-0.0861314978,0.0761048904,0.0939075805,0.5599959444,9.8956287664
1520520702321319216,0.0339764767,-0.0907968587,0.0784883655,0.0433997366,0.5552033164,9.8868279045
1520520702326335216,0.0420148716,-0.0931247843,0.0784556456,-0.0419825710,0.5839893364,9.9376030894
1520520702331351216,0.0480467491,-0.0919539695,0.0773711530,-0.0912878472,0.5755991935,9.8823082723
1520520702336365216,0.0520714900,-0.0890385490,0.0773859163,-0.0311594616,0.5755945105,9.8654530041
1520520702341383216,0.0560836503,-0.0945696376,0.0759834807,0.0349817626,0.5803859209,9.9205874584
1520520702346399216,0.0598451194,-0.1027371255,0.0797018760,0.1011229868,0.6439352120,9.9059359779
1520520702351414216,0.0590895841,-0.1080005532,0.0864269080,0.1035281222,0.6930997821,9.9023781930
1520520702356431216,0.0560726652,-0.1138512781,0.0945044238,0.0878947420,0.6799104550,10.0873241102
1520520702361446216,0.0485321557,-0.1167760898,0.0974721995,0.0590331169,0.6883066858,10.1480283318
1520520702366460216,0.0354656241,-0.1176626474,0.1001952589,0.0674510909,0.7050939961,10.2176586629
1520520702371477216,0.0181307525,-0.1156363050,0.1026779374,0.0446023043,0.7230828820,10.2480792617
1520520702376493216,0.0002996618,-0.1092408485,0.1057359875,-0.0479954096,0.7051029875,10.2582952428
1520520702381509216,-0.0228112918,-0.1016680812,0.1036723591,-0.0912878472,0.6475476189,10.2494756015
1520520702386524216,-0.0461676911,-0.0891389617,0.1005648063,-0.1105289307,0.6451508366,10.2578002287
1520520702391541216,-0.0720392348,-0.0783598624,0.0977191281,-0.1478085298,0.6487511613,10.2593217214
1520520702396556216,-0.0954010834,-0.0675688521,0.0908105942,-0.0576159513,0.6307570305,10.2235970636
1520520702401572216,-0.1192651377,-0.0579501326,0.0863290145,-0.0455902742,0.6199638301,10.1828154987
1520520702406588216,-0.1398656081,-0.0512461638,0.0826307742,-0.0491979773,0.5624053707,10.1247995445
1520520702411604216,-0.1589574035,-0.0430810395,0.0775881196,-0.0684390607,0.4940558652,10.0390548251
1520520702416619216,-0.1727616755,-0.0285084870,0.0744783929,-0.0864775764,0.4484899340,9.9416547437
1520520702421636216,-0.1858197076,-0.0200568995,0.0721322189,-0.0888827118,0.4293038745,9.8626710743
1520520702426651216,-0.1933522822,-0.0113001066,0.0654492657,-0.0491979773,0.4221059412,9.8065089137
1520520702431667216,-0.1961101829,-0.0040049215,0.0611812425,0.0578305492,0.4832537671,9.8437582779
1520520702436682216,-0.1966025797,0.0012296050,0.0650098340,0.1828975913,0.5324087838,9.8378444333
1520520702441699216,-0.1935799174,0.0038415924,0.0693529754,0.2021386747,0.5707797788,9.8050797028
1520520702446714216,-0.1887972420,0.0061585137,0.0753139021,0.1708719142,0.5839727586,9.8390733462
1520520702451730216,-0.1872796480,0.0096389649,0.0815603344,0.1035281222,0.5755840206,9.8408991587
1520520702456746216,-0.1817539788,0.0070164849,0.0823416964,0.0951101483,0.5300173401,9.8387012411
1520520702461761216,-0.1764770602,0.0049708480,0.0852923385,0.1323897474,0.5575946664,9.8057714588
1520520702466778216,-0.1699454469,0.0032243723,0.0855374110,0.1299846119,0.5539974324,9.8255548242
1520520702471793216,-0.1624067486,0.0020574172,0.0871377924,0.1456179922,0.5312125468,9.8486677550
1520520702476810216,-0.1518508884,-0.0008697753,0.0935890606,0.1143512317,0.5324141224,9.8396737654
1520520702481825216,-0.1473313828,-0.0043675311,0.0946361662,0.0890973097,0.4700607872,9.8341696575
1520520702486841216,-0.1377877433,-0.0072718076,0.0924318327,0.0433997366,0.4556746612,9.8311420499
1520520702491858216,-0.1294970381,-0.0090175942,0.0926736382,-0.0347671647,0.4388927832,9.7993792186
1520520702496873216,-0.1199518147,-0.0107563326,0.0904781970,-0.0299568939,0.3825328087,9.7180372805
1520520702501889216,-0.1124197850,-0.0098522734,0.0804606664,-0.0311594616,0.3333681450,9.6495304351
1520520702506905216,-0.1031240140,-0.0107191420,0.0790839989,-0.0672364930,0.2961976016,9.6162156617
1520520702511920216,-0.0918247992,-0.0150745529,0.0749714617,-0.0347671647,0.2194500857,9.5997044475
1520520702516935216,-0.0830406819,-0.0200093469,0.0692358701,-0.0299568939,0.1906703409,9.6136314189
1520520702521951216,-0.0732560738,-0.0272697242,0.0615868057,-0.0407800033,0.1834763413,9.5672580223
1520520702526968216,-0.0657292426,-0.0327877795,0.0558491015,0.0085252729,0.1666845353,9.5389030308
1520520702531984216,-0.0574543641,-0.0417985116,0.0487305907,0.0614382523,0.2038537674,9.5371896148
1520520702536999216,-0.0549555403,-0.0514095743,0.0472998322,0.0770716326,0.2410259030,9.5823248138
1520520702542015216,-0.0529572912,-0.0598567527,0.0464199913,0.0265637886,0.2638135047,9.6176585273
1520520702547031216,-0.0534724734,-0.0697669372,0.0474275234,-0.0227414876,0.2266439917,9.6820926017
1520520702552047216,-0.0567526876,-0.0790903367,0.0465508144,-0.0888827118,0.2122594579,9.7466683293
1520520702557064216,-0.0637911640,-0.0796714920,0.0449361611,-0.0588185190,0.2218502398,9.8253921371
1520520702562078216,-0.0700806248,-0.0828704420,0.0416768245,0.0097278406,0.2830010627,9.9641225871
1520520702567094216,-0.0783782887,-0.0890044210,0.0459742759,0.1107435285,0.3189674080,9.9747257217
1520520702572110216,-0.0851593191,-0.0896058738,0.0519344410,0.0927050128,0.3585404469,9.9795112852
1520520702577127216,-0.0921971055,-0.0948724913,0.0589416870,0.0614382523,0.4149024819,9.9344370435
1520520702582142216,-0.1035089048,-0.1004270680,0.0640608229,0.0217535178,0.3861262026,9.9673914052
1520520702587158216,-0.1095443460,-0.1042203435,0.0651253077,-0.0383748679,0.3345678474,9.9122440298
1520520702592174216,-0.1168373752,-0.1065469906,0.0624155991,-0.0528056804,0.2734128097,9.8961741114
1520520702597190216,-0.1216179061,-0.1115053119,0.0634688580,0.0313740595,0.2386311812,9.9128208276
1520520702602205216,-0.1238839512,-0.1147114278,0.0634486045,0.1504282631,0.2925832279,9.8825558079
1520520702607221216,-0.1228821901,-0.1182120189,0.0650433360,0.1287820442,0.3501436541,9.9117639695
1520520702612237216,-0.1198632719,-0.1199780838,0.0720585901,0.0506151429,0.3489506016,9.8706887852
1520520702617252216,-0.1170924769,-0.1164862140,0.0742445003,-0.0407800033,0.3633474048,9.8785372011
1520520702622268216,-0.1115603350,-0.1123981087,0.0718304425,-0.0960981181,0.4053216280,9.9011154419
1520520702627285216,-0.1057790036,-0.1088883034,0.0677881965,-0.1321751495,0.3717485060,9.9979572833
1520520702632300216,-0.1030193699,-0.1085790819,0.0615627300,-0.0828698733,0.3621515425,10.0253781856
1520520702637315216,-0.1007601817,-0.1079845003,0.0575047872,-0.0612236544,0.3489593120,10.0460989485
1520520702642332216,-0.0994996338,-0.1027288885,0.0537548266,-0.0131209459,0.3405615826,10.0479632196
1520520702647348216,-0.0974847935,-0.0971815968,0.0500056889,0.0229560855,0.3369613515,9.9523197716
1520520702652364216,-0.0994912598,-0.0910487408,0.0446451896,0.0241586532,0.2853982197,9.9535204921
1520520702657379216,-0.1004957886,-0.0881243629,0.0406110989,0.0854896066,0.2518175112,9.9227405329
1520520702662396216,-0.1005019397,-0.0895674453,0.0354596114,0.1323897474,0.2530129988,9.8595270929
1520520702667409216,-0.1030198050,-0.0907230415,0.0313971979,0.1384025859,0.2326271433,9.8583263024
1520520702672427216,-0.1032783134,-0.0939189002,0.0278561140,0.0746664971,0.1858656308,9.8578301307
1520520702677443216,-0.1047906345,-0.0959533551,0.0256789856,0.0746664971,0.1498914181,9.8683245064
1520520702682458216,-0.1042907615,-0.0968222128,0.0237775616,0.0951101483,0.1355001408,9.8414102416
1520520702687474216,-0.1060493671,-0.0956537217,0.0224369915,0.0602356846,0.0719484145,9.8731895500
1520520702692490216,-0.1030344829,-0.0953575136,0.0210808845,0.0133355438,0.0095967652,9.8620854133
1520520702697505216,-0.1010320507,-0.0994280966,0.0180700226,0.0782742003,-0.0083953988,9.8312551375
1520520702702522216,-0.0972648108,-0.1005899725,0.0172424918,0.1648590756,0.0359660534,9.8594227067
1520520702707538216,-0.0952588188,-0.1035015733,0.0166754353,0.1901129976,0.0383623674,9.8266345312
1520520702712553216,-0.0942532786,-0.1058439106,0.0209845181,0.1696693465,0.0407622404,9.8314797543
1520520702717568216,-0.0934947678,-0.1043954338,0.0242407841,0.1480231276,0.0035905732,9.7945380883
1520520702722585216,-0.0929821927,-0.1006232635,0.0302207605,0.1853027267,-0.0419796664,9.7709767873
1520520702727601216,-0.0954930718,-0.1000458496,0.0318531492,0.2610644926,-0.0707649371,9.8202396229
1520520702732615216,-0.0942296777,-0.0977266644,0.0364678805,0.2069489456,-0.1115314968,9.8382382673
1520520702737633216,-0.0977409144,-0.0942387128,0.0392065506,0.2021386747,-0.1319165093,9.8255213828
1520520702742649216,-0.1005010733,-0.0939607946,0.0438131879,0.1937207007,-0.1319158537,9.8116575908
1520520702747664216,-0.1037643513,-0.0916324551,0.0443781318,0.1732770496,-0.1343125424,9.7595624375
1520520702752680216,-0.1077757667,-0.0866892346,0.0476699426,0.1408077214,-0.1451022773,9.7529161343
1520520702757696216,-0.1105269009,-0.0776603110,0.0488261758,0.1492256953,-0.1558951968,9.7388989955
1520520702762711216,-0.1110148009,-0.0657086433,0.0470244344,0.1600488048,-0.1163244057,9.7236471904
1520520702767726216,-0.1094950428,-0.0575521995,0.0481660641,0.1865052944,-0.1175256067,9.7338501441
1520520702772743216,-0.1072216078,-0.0493947320,0.0490357476,0.2297977321,-0.1019401529,9.7775750309
1520520702777760216,-0.1046995947,-0.0406427420,0.0455806763,0.2105566487,-0.1007395140,9.7870582941
1520520702782774216,-0.1051977426,-0.0350964348,0.0418362058,0.1420102891,-0.1175221413,9.8098225882
1520520702787791216,-0.1016714986,-0.0257554545,0.0362193466,0.1768847527,-0.1439059467,9.7641852528
1520520702792807216,-0.0988976535,-0.0146635487,0.0295350425,0.1949232684,-0.1331150878,9.7744584485
1520520702797822216,-0.0986371926,-0.0038640120,0.0228531825,0.1792898882,-0.1247198873,9.7804131486
1520520702802838216,-0.0968659906,0.0092679202,0.0159157610,0.1684667787,-0.1139267805,9.7456436515
1520520702807854216,-0.0953490317,0.0215314277,0.0068077698,0.1841001590,-0.1175254194,9.6664692049
1520520702812871216,-0.0918211137,0.0329157418,-0.0001462573,0.2249874613,-0.0719612677,9.6764860936
1520520702817885216,-0.0880471345,0.0396343599,-0.0057835910,0.2634696281,-0.0359900521,9.6458607089
1520520702822901216,-0.0852842077,0.0399326548,-0.0079508690,0.2863184146,0.0059780831,9.5851659003
1520520702827917216,-0.0787539587,0.0370199125,-0.0074441429,0.3115723366,0.0059761163,9.5535422073
1520520702832932216,-0.0707233067,0.0291564093,-0.0077896472,0.3428390971,0.0059736811,9.5590485956
1520520702837949216,-0.0614418804,0.0169219020,-0.0079002856,0.3428390971,0.0083719620,9.6171534547
1520520702842965216,-0.0529114495,0.0058482669,-0.0063773560,0.3332185554,0.0071735708,9.6707068864
1520520702847980216,-0.0446262447,-0.0002697444,-0.0056278050,0.3139774720,0.0515432651,9.6615537501
1520520702852996216,-0.0388472577,-0.0031915233,-0.0018731280,0.2947363886,0.0563413253,9.7024113920
1520520702858012216,-0.0338164002,-0.0005714640,-0.0002391793,0.2442285447,-0.0036117621,9.7494472295
1520520702863027216,-0.0305451089,0.0052691614,-0.0045295193,0.2249874613,-0.0132033870,9.7461574333
1520520702868043216,-0.0305413649,0.0096472136,-0.0072016320,0.2442285447,-0.0192005876,9.7541110067
1520520702873060216,-0.0267632183,0.0148885129,-0.0052747960,0.2875209823,-0.0192039594,9.7990132389
1520520702878076216,-0.0252490978,0.0166242990,-0.0003944317,0.2586593572,-0.0144051499,9.8143973543
1520520702883090216,-0.0259970236,0.0163114946,0.0074505763,0.3019517949,-0.0204042237,9.8616297211
1520520702888107216,-0.0295088404,0.0162889918,0.0153029414,0.2658747635,-0.0096091501,9.8666189246
1520520702893123216,-0.0277482668,0.0121869878,0.0239260199,0.2334054352,0.0407572765,9.8459672577
1520520702898139216,-0.0282454190,0.0124614215,0.0301517320,0.1865052944,0.0923239674,9.8916970875
1520520702903154216,-0.0317611876,0.0124520304,0.0331342710,0.1997335393,0.0719375500,9.8997232183
1520520702908170216,-0.0367895870,0.0095311170,0.0350151959,0.1456179922,0.0599503604,9.9025859272
1520520702913186216,-0.0418156068,0.0098219892,0.0344856616,0.1299846119,0.0563541567,9.8806608658
1520520702918201216,-0.0463337049,0.0141931702,0.0337157712,0.1588462370,0.0815338578,9.9303275783
1520520702923218216,-0.0536181130,0.0173991870,0.0324010307,0.1696693465,0.0815330148,9.9383572405
1520520702928234216,-0.0599088088,0.0121554463,0.0310199537,0.2334054352,0.0587443828,9.9133540669
1520520702933249216,-0.0669422318,0.0130210156,0.0332040584,0.3452442326,0.0779219192,9.9227060828
1520520702938265216,-0.0757429285,0.0083517751,0.0345375538,0.4005623473,0.0539348024,10.0174868413
1520520702943281216,-0.0840452106,-0.0006938639,0.0380011367,0.5124011447,0.0707140579,10.0187061882
1520520702948297216,-0.0913383888,-0.0094593794,0.0457938101,0.5340473635,0.0491278444,10.0231651211
1520520702953313216,-0.1051642310,-0.0153041399,0.0501037525,0.4498676236,0.0479352602,10.1343893200
1520520702958328216,-0.1187397818,-0.0202673641,0.0517144385,0.3897392379,0.0143640114,10.1977630879
1520520702963345216,-0.1315690889,-0.0298880747,0.0516648796,0.3560673420,0.0131674934,10.2248213098
1520520702968359216,-0.1469053154,-0.0360175261,0.0532699403,0.3440416648,0.0335538172,10.2028377464
1520520702973376216,-0.1614882609,-0.0424373383,0.0546008318,0.3440416648,0.0503417831,10.2016592317
1520520702978391216,-0.1770751237,-0.0471055950,0.0545941993,0.3043569303,0.0575397165,10.2090113463
1520520702983406216,-0.1913978789,-0.0453592577,0.0532814116,0.2610644926,0.0347594202,10.1652934755
1520520702988424216,-0.2059749634,-0.0438956621,0.0487203167,0.1816950236,0.0167784954,10.1161113593
1520520702993440216,-0.2170367223,-0.0438846971,0.0430593887,0.1732770496,-0.0012079554,10.0743736524
1520520702998455216,-0.2270821087,-0.0348367758,0.0361127800,0.1384025859,-0.0359803115,10.0526662747
1520520703003471216,-0.2331144998,-0.0310300153,0.0283070505,0.1131486640,-0.0743508382,9.9623022714
1520520703008487216,-0.2353778045,-0.0275131626,0.0204920970,0.1227692057,-0.0719533066,9.9494227087
1520520703013503216,-0.2376464330,-0.0280764217,0.0129165663,0.1444154245,-0.1055309244,9.9329747439
1520520703018518216,-0.2368960453,-0.0266009929,0.0061626341,0.1468205599,-0.1654881328,9.9016319139
1520520703023535216,-0.2323730505,-0.0225001697,-0.0011193829,0.1564411016,-0.1606923204,9.8887500126
1520520703028550216,-0.2296093632,-0.0169358287,-0.0110924764,0.1949232684,-0.1666910197,9.8721112822
1520520703033565216,-0.2238281140,-0.0113768622,-0.0186362575,0.2394182738,-0.1463090979,9.8658475965
1520520703038582216,-0.2205603393,-0.0069880604,-0.0248315342,0.3079646335,-0.0839591345,9.8372281478
1520520703043597216,-0.2175453100,-0.0017164624,-0.0342662257,0.2923312532,-0.0767630744,9.7839146756
1520520703048614216,-0.2135239445,0.0032590460,-0.0418111859,0.2682798989,-0.0899517458,9.7678916241
1520520703053629216,-0.2115107312,0.0079336409,-0.0461080846,0.3392313940,-0.0743684463,9.7509158090
1520520703058645216,-0.2072297086,0.0187354814,-0.0530679581,0.4234111339,-0.0755741429,9.7768269353
1520520703063661216,-0.2024506124,0.0289671330,-0.0646324914,0.4426522173,-0.0575885351,9.7371092199
1520520703068675216,-0.2006876904,0.0327601917,-0.0662301337,0.3789161285,-0.0419947456,9.7226065151
1520520703073692216,-0.1941597622,0.0321967364,-0.0724692703,0.3428390971,-0.0216065486,9.7357213715
1520520703078707216,-0.1916438140,0.0389199611,-0.0799980916,0.2899261178,-0.0048144616,9.7048421365
1520520703083723216,-0.1851070884,0.0441812827,-0.0851105829,0.2574567895,-0.0551758306,9.6877751259
1520520703088739216,-0.1763097240,0.0506177696,-0.0934649331,0.2129617841,-0.0791551737,9.6673130086
1520520703093756216,-0.1637433634,0.0558865530,-0.1004824471,0.2370131384,-0.0743604852,9.6728849499
1520520703098772216,-0.1524374133,0.0579481576,-0.1069809895,0.2851158469,-0.1235289889,9.6608432510
1520520703103788216,-0.1408754639,0.0608723593,-0.1091445951,0.2670773312,-0.1151336011,9.6819292327
1520520703108803216,-0.1258004313,0.0611805776,-0.1132285638,0.2610644926,-0.1019425881,9.6598941601
1520520703113819216,-0.1102206958,0.0606039128,-0.1132619468,0.2394182738,-0.1343176937,9.6078399453
1520520703118834216,-0.0951413116,0.0626538824,-0.1148976640,0.2177720550,-0.1594979567,9.6626959583
1520520703123851216,-0.0805707703,0.0609192984,-0.1179140773,0.2779004406,-0.1367189716,9.6795206473
1520520703128867216,-0.0642377107,0.0597594314,-0.1176827608,0.3248005814,-0.1127398159,9.7057700743
1520520703133882216,-0.0524268931,0.0568378303,-0.1131276474,0.3789161285,-0.0635792732,9.7307625709
1520520703138899216,-0.0421294081,0.0512997335,-0.1110246545,0.3717007222,-0.0515873070,9.7075782287
1520520703143914216,-0.0328364205,0.0440027377,-0.1051454907,0.3921443734,-0.0336017929,9.6713352401
1520520703148930216,-0.0217839021,0.0367049742,-0.0987285022,0.3885366702,-0.0036230013,9.6608818262
1520520703153945216,-0.0145015717,0.0282372820,-0.0912312215,0.3933469411,-0.0228096228,9.6701508670
1520520703158962216,-0.0059595756,0.0235646369,-0.0861422875,0.3632827482,-0.0479892301,9.7262509594
1520520703163978216,-0.0004345259,0.0191880223,-0.0832098968,0.3512570711,-0.0300011872,9.7414583412
1520520703168992216,0.0040841838,0.0136440188,-0.0797434398,0.3777135608,-0.0252066860,9.6981968263
1520520703174009216,0.0073482028,0.0092643328,-0.0759952109,0.3344211231,-0.0659740887,9.7288737087
1520520703179025216,0.0106160951,0.0083841748,-0.0733024886,0.2791030083,-0.1151345377,9.6934336216
1520520703184040216,0.0156453726,0.0113021745,-0.0741012299,0.2069489456,-0.1499039903,9.5837661602
1520520703189057216,0.0219298742,0.0153956742,-0.0784105092,0.2081515133,-0.1511032244,9.5698098970
1520520703194071216,0.0289731570,0.0235710379,-0.0835017030,0.1865052944,-0.1942705938,9.5421712294
1520520703199088216,0.0370164485,0.0297151165,-0.0915863303,0.1756821850,-0.2098585764,9.4655902753
1520520703204103216,0.0470725456,0.0358519700,-0.0966986864,0.1877078622,-0.1870758449,9.5003153259
1520520703209120216,0.0611536070,0.0463669941,-0.1039495310,0.1732770496,-0.1546979296,9.5306399572
1520520703214136216,0.0742206326,0.0513496890,-0.1128640228,0.1973284039,-0.1331152751,9.4780883301
1520520703219152216,0.0870407070,0.0566105582,-0.1169059986,0.2358105707,-0.1151311659,9.4614262128
1520520703224168216,0.1001109787,0.0604116894,-0.1198773729,0.3223954460,-0.0299989394,9.5523097981
1520520703229183216,0.1091537769,0.0575013886,-0.1199164058,0.4558804621,0.0551296345,9.5916025521
1520520703234197216,0.1194582481,0.0536963019,-0.1121186106,0.5400602021,0.0611187804,9.6465602613
1520520703239215216,0.1262451473,0.0487170144,-0.1016177146,0.5400602021,0.0647162016,9.6930425114
1520520703244231216,0.1292537705,0.0393749518,-0.0946602607,0.5039831707,0.0827061178,9.7328890175
1520520703249247216,0.1287463194,0.0306099093,-0.0860685512,0.4727164101,0.0851068338,9.7622446091
1520520703254262216,0.1244624427,0.0198175384,-0.0826257744,0.4282214047,0.0791145971,9.7789535582
1520520703259277216,0.1224354178,0.0061151221,-0.0802916126,0.3909418056,0.1438710834,9.7815775586
1520520703264302216,0.1153877323,-0.0064361085,-0.0733399437,0.4318291079,0.1942317968,9.8555076875
1520520703269310216,0.1055795037,-0.0146103700,-0.0690552535,0.4330316756,0.2206127924,9.9077667349
1520520703274326216,0.0957758032,-0.0207507671,-0.0625906346,0.3897392379,0.2565903769,9.8976937412
1520520703279341216,0.0832069373,-0.0268893336,-0.0572030653,0.3536622065,0.2481992037,10.0049703220
1520520703284356216,0.0724007780,-0.0277706345,-0.0561074819,0.2490388155,0.2374150883,9.9815941630
1520520703289373216,0.0600842813,-0.0277659892,-0.0596017091,0.2297977321,0.2697933783,10.0166141903
1520520703294389216,0.0447447185,-0.0335916728,-0.0625937055,0.2995466595,0.3141561417,10.0542427820
1520520703299405216,0.0329246527,-0.0408838271,-0.0615451631,0.3572699097,0.3285413311,10.0432076116
1520520703304420216,0.0178458408,-0.0423502993,-0.0601755457,0.3933469411,0.3393307851,10.0405216480
1520520703309436216,0.0037778109,-0.0400298356,-0.0582378032,0.3175851752,0.3189512985,10.0401168013
1520520703314451216,-0.0125543235,-0.0377022452,-0.0592718651,0.2899261178,0.2697886953,10.0078939298
1520520703319468216,-0.0273821383,-0.0371187292,-0.0616747953,0.2346080030,0.1822557528,9.9480862386
1520520703324484216,-0.0417091550,-0.0362363474,-0.0667818948,0.1504282631,0.1151104453,9.9338632041
1520520703329499216,-0.0567915187,-0.0359348447,-0.0727036781,0.1323897474,0.0899299013,9.9526576393
1520520703334514216,-0.0688636596,-0.0379559525,-0.0813543056,0.1600488048,0.0191784621,9.8757559131
1520520703339532216,-0.0811776433,-0.0341545671,-0.0880661835,0.1215666379,-0.0515678258,9.9238473680
1520520703344547216,-0.0975191435,-0.0367717726,-0.0923845886,0.0951101483,-0.1067262247,9.9055643656
1520520703349562216,-0.1095908021,-0.0390871786,-0.0999552556,0.0854896066,-0.1462971094,9.8917508668
1520520703354579216,-0.1184001041,-0.0434351689,-0.1097119188,0.1011229868,-0.2170476120,9.9056134195
1520520703359594216,-0.1292181266,-0.0472040916,-0.1183782185,0.0915024451,-0.2302374074,9.8429641492
1520520703364610216,-0.1390244067,-0.0492381535,-0.1218926745,0.1420102891,-0.2266439198,9.8029561344
1520520703369625216,-0.1445532397,-0.0474832711,-0.1251156189,0.1047306900,-0.2386324206,9.7580070703
1520520703374641216,-0.1458147833,-0.0474670095,-0.1313358409,0.0818819034,-0.2638125899,9.7907940532
1520520703379658216,-0.1493412390,-0.0538803043,-0.1308371228,0.2057463779,-0.2350428667,9.8000196638
1520520703384673216,-0.1496076353,-0.0675871305,-0.1266124068,0.3404339617,-0.2002782844,9.8009990746
1520520703389690216,-0.1496171110,-0.0807271146,-0.1164317016,0.3753084254,-0.1451205410,9.8075787021
1520520703394705216,-0.1493719046,-0.0930001310,-0.1035393349,0.3416365294,-0.1487153398,9.8044235198
1520520703399722216,-0.1481242197,-0.1032148511,-0.0973969209,0.2959389563,-0.1822877126,9.8153603490
1520520703404737216,-0.1473834409,-0.1154643607,-0.0931629563,0.2766978729,-0.2182604268,9.8051234145
1520520703409752216,-0.1458884991,-0.1265436663,-0.0905447749,0.2766978729,-0.2206587076,9.7156406687
1520520703414768216,-0.1441446263,-0.1364442236,-0.0927879940,0.3055594980,-0.2410463426,9.6956231789
1520520703419784216,-0.1413956915,-0.1469293415,-0.0942258885,0.3007492272,-0.2602322148,9.6062036241
1520520703424801216,-0.1376462698,-0.1612035212,-0.0951534583,0.3356236908,-0.2602349309,9.6384042082
1520520703429816216,-0.1338974637,-0.1757683570,-0.0963537970,0.4222085662,-0.2266657426,9.6142858235
1520520703434831216,-0.1276226103,-0.1836434759,-0.0926378458,0.4342342433,-0.1990864494,9.5409268091
1520520703439848216,-0.1168284670,-0.1935521436,-0.0905691326,0.4149931599,-0.1942883892,9.5260015412
1520520703444864216,-0.1072878658,-0.1996660205,-0.0911746447,0.3981572119,-0.1906896567,9.5273240479
1520520703449880216,-0.0954793299,-0.2019946546,-0.0904027277,0.3729032900,-0.2350558855,9.5159916801
1520520703454895216,-0.0866883559,-0.2043179143,-0.0920601231,0.3392313940,-0.2458455268,9.5186542337
1520520703459911216,-0.0773933728,-0.2043040734,-0.0958650344,0.3296108523,-0.2626327435,9.5222506767
1520520703464926216,-0.0658377117,-0.2048713871,-0.0999491382,0.3680930191,-0.3141987788,9.4731163504
1520520703469943216,-0.0522634349,-0.2001966337,-0.1026442309,0.3717007222,-0.3345844470,9.4219667800
1520520703474959216,-0.0376776706,-0.1905664927,-0.1058444898,0.4089803213,-0.3525744568,9.3879192887
1520520703479974216,-0.0258573342,-0.1806409512,-0.1109312129,0.4210059985,-0.3393848487,9.3831407996
1520520703484989216,-0.0102676527,-0.1727623657,-0.1127939477,0.4186008630,-0.3225966955,9.3366620808
1520520703490006216,0.0028162542,-0.1602255261,-0.1135342623,0.4294239725,-0.3154026959,9.3202797039
1520520703495022216,0.0153969479,-0.1479795394,-0.1145464125,0.4137905922,-0.2722324230,9.2506611362
1520520703500038216,0.0314958291,-0.1342686959,-0.1179888944,0.3777135608,-0.2746278941,9.2161503079
1520520703505053216,0.0430750676,-0.1191085293,-0.1192474927,0.3825238317,-0.2662342858,9.2346896056
1520520703510069216,0.0531443999,-0.1059908305,-0.1197072146,0.4642984361,-0.2614440930,9.2722397349
1520520703515084216,0.0652200771,-0.0952005066,-0.1212706386,0.4847420873,-0.2158783491,9.3486978150
1520520703520101216,0.0770481013,-0.0838369816,-0.1193120530,0.5039831707,-0.1799056349,9.3937990681
1520520703525116216,0.0868726388,-0.0686920729,-0.1151564663,0.4811343841,-0.2050858043,9.3835867247
1520520703530132216,0.0936802300,-0.0532511337,-0.1131574230,0.4306265402,-0.2098784323,9.4061637496
1520520703535146216,0.0979734725,-0.0375139670,-0.1133158566,0.4065751859,-0.2410542101,9.4168875491
1520520703540164216,0.1032703696,-0.0232347860,-0.1129461807,0.4378419465,-0.2638403133,9.4259025867
1520520703545181216,0.1090699466,-0.0110045694,-0.1090759032,0.3981572119,-0.2830234693,9.4193346993
1520520703550195216,0.1156251373,0.0029764350,-0.1060053251,0.3680930191,-0.3333850256,9.4708107719
1520520703555211216,0.1201651427,0.0137528788,-0.1034965589,0.3981572119,-0.3609675968,9.5193550864
1520520703560227216,0.1277100862,0.0163702805,-0.1005145480,0.4558804621,-0.3705652159,9.5920176675
1520520703565243216,0.1314838693,0.0154793929,-0.0937645707,0.4979703321,-0.3621745110,9.5857890854
1520520703570259216,0.1335073070,0.0177784774,-0.0815759545,0.5280345249,-0.3537828695,9.5866504176
1520520703575275216,0.1332630296,0.0162915906,-0.0704942214,0.4883497904,-0.3489832171,9.6858142432
1520520703580291216,0.1287498398,0.0171341063,-0.0593867694,0.4594881653,-0.3801586202,9.7430706211
1520520703585305216,0.1214723197,0.0182683804,-0.0488130522,0.4137905922,-0.3849516228,9.7237636434
1520520703590323216,0.1099199086,0.0191176090,-0.0412096286,0.3680930191,-0.4089308722,9.7405018377
1520520703595338216,0.0983580023,0.0159005659,-0.0385071543,0.3656878837,-0.3933418594,9.7567800618
1520520703600354216,0.0827844611,0.0176274718,-0.0327834151,0.3897392379,-0.4197248219,9.7437881026
1520520703605369216,0.0659448834,0.0141169766,-0.0300733627,0.4450573527,-0.4305213941,9.7142065952
1520520703610385216,0.0488545322,0.0100192434,-0.0257440144,0.4883497904,-0.4365204680,9.7184396357
1520520703615401216,0.0322625525,0.0018379531,-0.0198234473,0.4943626290,-0.4425166384,9.7149005252
1520520703620418216,0.0166777048,-0.0045931794,-0.0144325004,0.5460730406,-0.4413215253,9.6690724243
1520520703625434216,0.0021018748,-0.0101585056,-0.0057902004,0.5593012855,-0.4317294322,9.6910150490
1520520703630449216,-0.0124762409,-0.0165943433,0.0014927008,0.5605038532,-0.4545131939,9.6828905538
1520520703635464216,-0.0250436601,-0.0236158045,0.0101201516,0.5845552074,-0.4749004543,9.7233513698
1520520703640480216,-0.0393750049,-0.0320854080,0.0152226574,0.5917706137,-0.5444511608,9.7535647039
1520520703645497216,-0.0504315497,-0.0361895195,0.0227873551,0.5761372334,-0.5468482241,9.8211235577
1520520703650512216,-0.0614863303,-0.0373725014,0.0276688247,0.5689218272,-0.5804235940,9.8421451207
1520520703655528216,-0.0730436144,-0.0362144059,0.0287813699,0.5340473635,-0.5972088438,9.8471495139
1520520703660544216,-0.0845931596,-0.0309842114,0.0326304973,0.4979703321,-0.6403750892,9.8556777695
1520520703665559216,-0.0936319120,-0.0257457481,0.0337694984,0.4787292487,-0.6883392076,9.7919939065
1520520703670576216,-0.1009083578,-0.0170048822,0.0330380883,0.4294239725,-0.7291061419,9.7506763890
1520520703675591216,-0.1094417760,-0.0065067318,0.0288052536,0.4390445142,-0.7530896997,9.7238768244
1520520703680607216,-0.1137033337,0.0039938208,0.0242939387,0.4378419465,-0.7710767124,9.7076360542
1520520703685622216,-0.1141942250,0.0139065252,0.0222060899,0.4739189778,-0.7770752243,9.6770750064
1520520703690639216,-0.1146892523,0.0206132715,0.0203643330,0.4751215456,-0.7303088414,9.6537748180
1520520703695654216,-0.1114153696,0.0267379971,0.0187816751,0.4642984361,-0.7015286283,9.6096906291
1520520703700671216,-0.1076351491,0.0357774933,0.0169497686,0.4450573527,-0.6859383043,9.6110248525
1520520703705686216,-0.1041105321,0.0442457768,0.0107851483,0.4222085662,-0.7195124566,9.6008206945
1520520703710701216,-0.0970638581,0.0562149669,0.0035584874,0.3741058577,-0.7111147272,9.5489842335
1520520703715717216,-0.0874981662,0.0734337051,-0.0049855547,0.4053726182,-0.7039223199,9.5521593178
1520520703720734216,-0.0761702147,0.0929842087,-0.0135150792,0.4089803213,-0.7303036901,9.5033398820
1520520703725750216,-0.0630897304,0.1064104990,-0.0199301884,0.4667035716,-0.7614858368,9.4877005707
1520520703730764216,-0.0464902352,0.1172011383,-0.0209609216,0.5136037124,-0.7914680002,9.4791382993
1520520703735780216,-0.0303979129,0.1247870793,-0.0222857211,0.5424653375,-0.8022625118,9.4800300460
1520520703740797216,-0.0155666206,0.1274117068,-0.0209405206,0.5015780352,-0.8490258039,9.4990679254
1520520703745811216,0.0032829949,0.1303387637,-0.0231176611,0.4991728998,-0.8490256166,9.4340112741
1520520703750829216,0.0216367362,0.1352922036,-0.0204084805,0.4594881653,-0.9017847044,9.4019089612
1520520703755844216,0.0389817185,0.1376227889,-0.0177174408,0.4161957276,-0.9161710177,9.4383708378
1520520703760859216,0.0560732928,0.1393748773,-0.0166536559,0.4149931599,-0.8957855369,9.4499841037
1520520703765875216,0.0744226746,0.1396596089,-0.0115451316,0.4438547850,-0.9017834868,9.4590061807
1520520703770892216,0.0915129630,0.1367327910,-0.0042943604,0.5099960092,-0.9041869190,9.5118233631
1520520703775908216,0.1086026751,0.1317589970,0.0056463081,0.4775266810,-0.9233706369,9.5040231014
1520520703780923216,0.1229335964,0.1296928663,0.0175081627,0.4510701913,-0.9305634190,9.5066119166
1520520703785938216,0.1352533862,0.1296772946,0.0250605783,0.3885366702,-0.9341559699,9.5548719897
1520520703790956216,0.1483273822,0.1305390855,0.0315360795,0.3596750451,-0.9545391093,9.5505242140
1520520703795970216,0.1536062297,0.1273162556,0.0388065636,0.3596750451,-0.9449459859,9.5888656097
1520520703800986216,0.1614042715,0.1296350869,0.0444913436,0.3428390971,-0.9845163086,9.6088245159
1520520703806003216,0.1669364956,0.1316740309,0.0455788209,0.3933469411,-0.9941133657,9.6548280165
1520520703811018216,0.1707163083,0.1360317070,0.0510160842,0.3596750451,-0.9341537221,9.7225016404
1520520703816034216,0.1729843724,0.1389384257,0.0540101194,0.3079646335,-0.9257557117,9.7520503713
1520520703821050216,0.1744957721,0.1412686358,0.0545661956,0.3103697689,-0.8634005970,9.8228569368
1520520703826066216,0.1727388365,0.1430169822,0.0543122553,0.2237848935,-0.8370127642,9.8480789984
1520520703831082216,0.1709854646,0.1473877893,0.0540783227,0.2081515133,-0.8070330360,9.8540126504
1520520703836097216,0.1667202100,0.1546809268,0.0503541916,0.2009361070,-0.7818505252,9.8958955070
1520520703841114216,0.1654683890,0.1616896887,0.0444578695,0.1925181330,-0.8262180652,9.8751021168
1520520703846129216,0.1634675446,0.1683892883,0.0450538261,0.2418234092,-0.8058365181,9.8223058528
1520520703851145216,0.1602043176,0.1733517434,0.0413100434,0.2827107115,-0.8118354046,9.7882115529
1520520703856161216,0.1607078875,0.1756903008,0.0386214357,0.3115723366,-0.7674694568,9.7936980857
1520520703861176216,0.1632166496,0.1716075314,0.0402089206,0.3079646335,-0.7506812099,9.8099868455
1520520703866192216,0.1627051173,0.1637341248,0.0423141979,0.3404339617,-0.7243026494,9.8398608263
1520520703871208216,0.1652037608,0.1523674706,0.0435755599,0.3680930191,-0.6943262930,9.7954009063
1520520703876224216,0.1694626761,0.1389487022,0.0496879192,0.3704981545,-0.6499582847,9.8418199888
1520520703881240216,0.1702010830,0.1264143639,0.0514847477,0.3524596388,-0.6475585989,9.9361268862
1520520703886255216,0.1716972127,0.1162092118,0.0541095983,0.2742927375,-0.6331628259,9.9147929477
1520520703891272216,0.1714304753,0.1063085953,0.0515995671,0.2177720550,-0.6583403728,9.9049083459
1520520703896288216,0.1731815185,0.1013601181,0.0499352322,0.1744796173,-0.6571378606,9.9367064454
1520520703901304216,0.1711648004,0.0996241351,0.0450558013,0.1804924559,-0.7194936309,9.9797080520
1520520703906319216,0.1681416990,0.0970136046,0.0401715681,0.1997335393,-0.7182959891,9.9493038590
1520520703911335216,0.1648640409,0.0911941038,0.0366160772,0.2346080030,-0.7039090201,9.9965982824
1520520703916349216,0.1613370638,0.0868314271,0.0330721684,0.2430259770,-0.6727320247,10.0220531112
1520520703921366216,0.1573057720,0.0807180610,0.0303274922,0.2478362478,-0.6367581867,10.0614841052
1520520703926383216,0.1500134446,0.0780963872,0.0289682899,0.2382157061,-0.6295625949,10.0418142824
1520520703931399216,0.1402077368,0.0766458229,0.0251877341,0.2021386747,-0.6055769766,10.0909520934
1520520703936413216,0.1311569449,0.0787045515,0.0168331750,0.2045438101,-0.6139711469,10.1106933159
1520520703941430216,0.1218556853,0.0795896309,0.0114461951,0.1732770496,-0.6211635543,10.1493554139
1520520703946446216,0.1110512078,0.0836786209,0.0063570154,0.1335923151,-0.6019742167,10.1404258197
1520520703951462216,0.0999936281,0.0866027027,0.0009888641,0.1396051536,-0.6175635105,10.1554903672
1520520703956476216,0.0896880984,0.0886551116,-0.0051989942,0.1756821850,-0.6379517075,10.1725912536
1520520703961492216,0.0796318406,0.0880800593,-0.0095135058,0.1492256953,-0.6523393321,10.1287013266
1520520703966508216,0.0688231840,0.0892559324,-0.0148954623,0.1624539402,-0.6163661496,10.0715924371
1520520703971525216,0.0595188429,0.0872242528,-0.0192224894,0.1552385339,-0.6223612898,10.0995599690
1520520703976541216,0.0497128215,0.0834331426,-0.0195037332,0.1323897474,-0.6043724039,10.1485748711
1520520703981557216,0.0416647040,0.0787685680,-0.0197949133,0.1576436693,-0.6079717920,10.1192789741
1520520703986571216,0.0333663855,0.0741002528,-0.0187328973,0.1913155653,-0.5995804315,10.1003487438
1520520703991587216,0.0278327500,0.0697244051,-0.0176737920,0.1889104299,-0.6043768059,10.0968903994
1520520703996604216,0.0207876716,0.0633111888,-0.0177096317,0.1816950236,-0.6559392822,10.0493630092
1520520704001620216,0.0142454967,0.0563117581,-0.0163981214,0.1877078622,-0.7099010695,10.0400599526
1520520704006636216,0.0082079423,0.0504766056,-0.0145375605,0.1528333985,-0.7722536554,10.0148930379
1520520704011651216,0.0039278567,0.0452329241,-0.0156518253,0.1432128568,-0.7890408720,9.9882737381
1520520704016666216,-0.0033728800,0.0341509010,-0.0132878545,0.1347948828,-0.8322092717,9.9570198830
1520520704021683216,-0.0061445649,0.0262715093,-0.0092845554,0.1516308308,-0.8501976893,9.9417656809
1520520704026699216,-0.0114328842,0.0178178336,-0.0087981319,0.1588462370,-0.8298128640,9.9347027080
1520520704031714216,-0.0119422210,0.0099371427,-0.0039873957,0.1732770496,-0.8537967964,9.9136670430
1520520704036730216,-0.0184871716,-0.0005654582,-0.0002676494,0.1949232684,-0.8070320058,9.8936543005
1520520704041746216,-0.0187401955,-0.0052430062,0.0053787118,0.1828975913,-0.7122989757,9.9157597084
1520520704046762216,-0.0210060328,-0.0128402860,0.0129003972,0.1600488048,-0.6823186856,9.9682493489
1520520704051778216,-0.0237765769,-0.0210161613,0.0187952944,0.1335923151,-0.6427449911,9.9859004313
1520520704056794216,-0.0235316645,-0.0283123309,0.0230679849,0.1311871796,-0.6031731698,10.0068038444
1520520704061810216,-0.0285664384,-0.0341390769,0.0219506741,0.1119460962,-0.6139639351,9.9779480505
1520520704066825216,-0.0320888835,-0.0350044108,0.0181628964,0.0590331169,-0.6535314480,9.9970959644
1520520704071840216,-0.0376180262,-0.0341265958,0.0160154664,0.0698562263,-0.7002987675,9.9737933441
1520520704076858216,-0.0411380093,-0.0338293053,0.0133187647,0.0734639294,-0.7470655249,9.9366152266
1520520704081873216,-0.0454168952,-0.0338083977,0.0049397762,0.0902998774,-0.7878376106,9.9271939617
1520520704086888216,-0.0494371393,-0.0300066771,-0.0007053199,0.0963127160,-0.8573882234,9.8818796439
1520520704091904216,-0.0516989581,-0.0291290390,-0.0023177256,0.1684667787,-0.8741818090,9.8858422871
1520520704096920216,-0.0534595005,-0.0297103120,-0.0031305423,0.1913155653,-0.8490016396,9.8890817667
1520520704101937216,-0.0559733709,-0.0311718613,-0.0017842611,0.1768847527,-0.8418056732,9.8404051653
1520520704106952216,-0.0574823988,-0.0332172427,0.0000967989,0.1877078622,-0.8478022182,9.8240356511
1520520704111969216,-0.0597440020,-0.0338038116,0.0011787369,0.2045438101,-0.8537992316,9.7971483161
1520520704116983216,-0.0635117712,-0.0335182745,0.0028112362,0.1768847527,-0.8513987965,9.7567401553
1520520704122000216,-0.0635134923,-0.0367322455,0.0060333330,0.2009361070,-0.8597946527,9.7344335044
1520520704127015216,-0.0655243260,-0.0381950548,0.0079197726,0.1408077214,-0.8537942676,9.7524450699
1520520704132031216,-0.0630077780,-0.0370350880,0.0103589108,0.0878947420,-0.8346038998,9.7215634961
1520520704137048216,-0.0622571825,-0.0399508232,0.0111469175,0.1131486640,-0.8130213390,9.6992159067
1520520704142062216,-0.0627563066,-0.0382063551,0.0125139189,0.1359974505,-0.7506678165,9.6791762578
1520520704147079216,-0.0592376879,-0.0396699121,0.0154722742,0.1756821850,-0.7278872393,9.6462277428
1520520704152094216,-0.0542129031,-0.0420055751,0.0178800681,0.1853027267,-0.6835197929,9.6739822917
1520520704157110216,-0.0501896167,-0.0411342168,0.0195025452,0.1853027267,-0.6871172141,9.6309864734
1520520704162126216,-0.0454123045,-0.0411410873,0.0227402282,0.1420102891,-0.7362785998,9.6279693665
1520520704167141216,-0.0388786211,-0.0405528447,0.0216503560,0.1167563671,-0.7650560031,9.5980274940
1520520704172158216,-0.0323379477,-0.0367681134,0.0238314884,0.0494125752,-0.8405966048,9.5871352060
1520520704177173216,-0.0283157982,-0.0341367931,0.0211385697,-0.0143235136,-0.8453882025,9.5726523799
1520520704182189216,-0.0215257980,-0.0288819290,0.0184605247,-0.0431851387,-0.8417885334,9.5589840658
1520520704187205216,-0.0137282697,-0.0215855225,0.0152550827,-0.0347671647,-0.8501831720,9.4415337764
1520520704192221216,-0.0081956378,-0.0148647585,0.0090733901,0.0169432469,-0.8166112675,9.5269963701
1520520704197237216,-0.0006546931,-0.0134048822,0.0090705039,0.0698562263,-0.7758446141,9.5775759240
1520520704202252216,0.0071395615,-0.0151712617,0.0168885279,0.1456179922,-0.7015038085,9.5860631581
1520520704207268216,0.0199553940,-0.0198480605,0.0241338948,0.1792898882,-0.5887872311,9.5902740744
1520520704212285216,0.0242347621,-0.0201632664,0.0335928438,0.1672642110,-0.5360241159,9.6589061674
1520520704217299216,0.0275116635,-0.0181463330,0.0425303526,0.1119460962,-0.5336215267,9.7024415876
1520520704222316216,0.0330530340,-0.0111618648,0.0466316272,0.0734639294,-0.5288219679,9.7411622225
1520520704227331216,0.0345715179,-0.0032938918,0.0466888501,0.0650459554,-0.5480075590,9.7679921783
1520520704232347216,0.0350860807,0.0048621581,0.0478323466,0.0446023043,-0.5719887753,9.7647281192
1520520704237364216,0.0361064088,0.0153494812,0.0489926944,0.0241586532,-0.5971691320,9.7637895173
1520520704242380216,0.0348587591,0.0223444029,0.0482367444,0.0037150021,-0.6523279992,9.7524208533
1520520704247395216,0.0353714793,0.0310919630,0.0461381363,-0.0227414876,-0.6906984322,9.7004193055
1520520704252410216,0.0343681815,0.0345976531,0.0426495836,0.0061201375,-0.7098869269,9.6327527442
1520520704257427216,0.0338634786,0.0354825363,0.0385989979,-0.0071081073,-0.7062884753,9.6537965830
1520520704262442216,0.0341107355,0.0346179508,0.0350747652,-0.0275517585,-0.7254731299,9.6667978619
1520520704267458216,0.0303371641,0.0325811528,0.0334429291,0.0085252729,-0.7422639056,9.6199773228
1520520704272475216,0.0258091669,0.0296677206,0.0326174616,0.0181458146,-0.7290741102,9.6384651229
1520520704277490216,0.0230409202,0.0267527924,0.0326003647,-0.0059055396,-0.7170808328,9.6503089701
1520520704282505216,0.0232892748,0.0258845647,0.0304288615,0.0241586532,-0.7242780168,9.6209697609
1520520704287522216,0.0177556471,0.0244356741,0.0266403715,0.0446023043,-0.7194830474,9.6544682723
1520520704292538216,0.0154904842,0.0226901230,0.0252785040,0.0289689240,-0.7026938639,9.6278747563
1520520704297554216,0.0117137882,0.0180294074,0.0241677519,0.0578305492,-0.6643236181,9.6077999689
1520520704302569216,0.0069405649,0.0200715990,0.0225689059,0.0710587940,-0.6355452782,9.5995081414
1520520704307585216,0.0021588069,0.0159954440,0.0206528291,0.0794767680,-0.6463381977,9.6145446015
1520520704312600216,-0.0008598174,0.0127846622,0.0222572513,0.0951101483,-0.6847119088,9.5865383997
1520520704317615216,-0.0038801078,0.0104575035,0.0203512460,0.0590331169,-0.6583280097,9.5682695227
1520520704322632216,-0.0051435960,0.0057970441,0.0195063725,0.0265637886,-0.6175547065,9.6092208401
1520520704327649216,-0.0048995970,0.0017235866,0.0173104155,0.0001072989,-0.6391371736,9.6362287104
1520520704332663216,-0.0069118733,0.0026071506,0.0135331760,-0.0576159513,-0.6703103289,9.6228752284
1520520704337680216,-0.0086730703,0.0034915414,0.0094849238,-0.0588185190,-0.7038861671,9.6484868420
1520520704342697216,-0.0079218907,0.0055497393,0.0027354379,-0.0720467638,-0.7242705240,9.6742026434
1520520704347711216,-0.0081725622,0.0102307324,-0.0042627193,-0.0912878472,-0.7266673063,9.6604465355
1520520704352726216,-0.0124457321,0.0131596579,-0.0104551098,-0.0756544670,-0.7446556303,9.6916897966
1520520704357743216,-0.0132042390,0.0131746596,-0.0161351734,-0.0576159513,-0.6930939970,9.7100582424
1520520704362759216,-0.0139624793,0.0143595700,-0.0234296201,-0.0455902742,-0.6882983719,9.7238822420
1520520704367773216,-0.0137153909,0.0161298285,-0.0315331252,-0.0347671647,-0.6978923382,9.6517333260
1520520704372790216,-0.0157273575,0.0178904598,-0.0363858790,0.0013098666,-0.6643192161,9.6571601526
1520520704377806216,-0.0152265162,0.0178964841,-0.0385511796,0.0013098666,-0.6391372672,9.6385412932
1520520704382821216,-0.0162363298,0.0149844303,-0.0393831813,0.0037150021,-0.6295443312,9.6571028316
1520520704387838216,-0.0162419634,0.0100272512,-0.0380682443,0.0145381115,-0.6403374379,9.6872237530
1520520704392854216,-0.0129779406,0.0071110437,-0.0367438130,0.0097278406,-0.6607224505,9.7105333311
1520520704397869216,-0.0134817300,0.0047732147,-0.0343257512,-0.0035004042,-0.6906999308,9.7199884718
1520520704402886216,-0.0124742531,0.0041806414,-0.0305444217,-0.0155260813,-0.7278723473,9.7398982191
1520520704407901216,-0.0107123033,0.0056353395,-0.0294543898,0.0073227052,-0.7542552162,9.6653243354
1520520704412917216,-0.0127184716,0.0082548273,-0.0286190105,-0.0504005450,-0.7698395460,9.6380099247
1520520704417932216,-0.0092024442,0.0065071701,-0.0283683373,-0.0600210867,-0.7350637245,9.6403939422
1520520704422948216,-0.0074426036,0.0073834698,-0.0289060269,-0.0311594616,-0.7122823042,9.6145236364
1520520704427965216,-0.0044317692,0.0038880369,-0.0289383046,0.0037150021,-0.6811073694,9.6222887946
1520520704432979216,0.0023517114,0.0012616786,-0.0265360008,0.0614382523,-0.6355445290,9.6379525324
1520520704437996216,0.0073724934,-0.0036949883,-0.0246893065,0.1143512317,-0.5683967863,9.5850755489
1520520704443012216,0.0113883859,-0.0092384602,-0.0214924619,0.1227692057,-0.5048429995,9.5814452067
1520520704448029216,0.0171661850,-0.0130343926,-0.0177444541,0.1179589348,-0.4436864632,9.5721352390
1520520704453044216,0.0252036076,-0.0177006788,-0.0150894997,0.0915024451,-0.4137058921,9.5653906530
1520520704458059216,0.0332414653,-0.0238319003,-0.0094696558,0.0782742003,-0.4292936874,9.5713453298
1520520704463075216,0.0412778333,-0.0287873857,-0.0076285621,0.0566279814,-0.3993134909,9.6354447049
1520520704468090216,0.0462987917,-0.0334519396,-0.0060501906,0.0518177106,-0.3981139759,9.6633818106
1520520704473107216,0.0540912548,-0.0319926933,-0.0057829977,-0.0059055396,-0.3837197951,9.6709024850
1520520704478122216,0.0636434683,-0.0305349431,-0.0047074341,-0.0095132428,-0.3453470206,9.7022780681
1520520704483138216,0.0691802244,-0.0249986563,-0.0038638257,0.0049175698,-0.3321575998,9.7985826929
1520520704488155216,0.0759694759,-0.0206194027,-0.0060074481,0.0049175698,-0.3177679147,9.8311086915
1520520704493170216,0.0817553354,-0.0150757332,-0.0078697654,0.0975152837,-0.2877966160,9.8290160247
1520520704498186216,0.0880499908,-0.0069181472,-0.0064664576,0.0939075805,-0.2829997733,9.8697215010
1520520704503201216,0.0913214899,-0.0054686858,-0.0032148589,0.1227692057,-0.2518243701,9.8775451845
1520520704508217216,0.0938387436,-0.0031402672,-0.0018490119,0.1191615025,-0.2122524552,9.8961360147
1520520704513234216,0.0958462723,-0.0060569670,-0.0005222471,0.1059332577,-0.1846711952,9.9043728832
1520520704518249216,0.0970940122,-0.0121740929,-0.0011123573,0.1047306900,-0.1642857143,9.9217968688
1520520704523265216,0.0973377446,-0.0174174591,-0.0016939314,0.1444154245,-0.1906698944,9.9446792065
1520520704528280216,0.0938162561,-0.0217983465,0.0015258072,0.2165694873,-0.1966712161,9.9567663333
1520520704533296216,0.0943160389,-0.0235449999,0.0009704435,0.1311871796,-0.2026602684,9.9738732544
1520520704538313216,0.0890360349,-0.0258796006,0.0015035518,0.1456179922,-0.2326399029,9.9911941865
1520520704543329216,0.0830036711,-0.0282195956,0.0039318815,0.1564411016,-0.2494287118,10.0434016897
1520520704548344216,0.0782238459,-0.0320094651,0.0039118492,0.1828975913,-0.2566256148,10.0187461714
1520520704553360216,0.0684166366,-0.0366747289,0.0036239361,0.1444154245,-0.2578217581,10.0109868949
1520520704558376216,0.0608716029,-0.0401699263,0.0019879854,0.1131486640,-0.2961918165,10.0090043573
1520520704563393216,0.0495547973,-0.0460005905,0.0014234345,0.1359974505,-0.3141807024,9.9727730387
1520520704568407216,0.0427635739,-0.0489098097,-0.0012916538,0.1420102891,-0.2722112559,10.0307807843
1520520704573424216,0.0326988637,-0.0576523700,-0.0024218610,0.1792898882,-0.2494304913,9.9920449596
1520520704578440216,0.0218842990,-0.0655305417,-0.0000269022,0.2358105707,-0.2566297359,9.9740696787
1520520704583454216,0.0130860212,-0.0687443165,0.0018588005,0.2514439509,-0.2398429875,9.9727389982
1520520704588472216,0.0022835979,-0.0681745222,0.0051298665,0.2899261178,-0.2446425463,10.0049091445
1520520704593487216,-0.0070120869,-0.0678933364,0.0075842714,0.2730901698,-0.2002730394,9.9736518630
1520520704598502216,-0.0193278858,-0.0696471963,0.0078643482,0.2478362478,-0.1798856854,9.9494727673
1520520704603519216,-0.0276159093,-0.0667395138,0.0089841645,0.2418234092,-0.1798852171,9.9007212466
1520520704608535216,-0.0346498616,-0.0667502833,0.0119732376,0.2466336801,-0.1595002045,9.8727630927
1520520704613550216,-0.0429356427,-0.0626792480,0.0139135840,0.3007492272,-0.1738941043,9.8420346544
1520520704618566216,-0.0487098469,-0.0609441318,0.0179958456,0.2754953052,-0.1559050311,9.8387764886
1520520704623581216,-0.0537284766,-0.0557019078,0.0183157415,0.2887235500,-0.1750923081,9.7863699645
1520520704628598216,-0.0590047837,-0.0548290934,0.0180616660,0.2682798989,-0.2122640690,9.7819566241
1520520704633612216,-0.0637733965,-0.0528021988,0.0221442838,0.3524596388,-0.1631058679,9.7276307054
1520520704638630216,-0.0607447517,-0.0461122850,0.0270596402,0.4029674828,-0.1595123803,9.7213248652
1520520704643645216,-0.0619850663,-0.0382636058,0.0338856445,0.3837263994,-0.1774979881,9.7133946785
1520520704648661216,-0.0589541790,-0.0304103391,0.0396215309,0.3753084254,-0.2002810005,9.7681195972
1520520704653677216,-0.0594498337,-0.0283846845,0.0447783980,0.3717007222,-0.1619082260,9.7890358847
1520520704658692216,-0.0561791736,-0.0286886293,0.0499104795,0.3825238317,-0.0983546265,9.8179221631
1520520704663708216,-0.0569207168,-0.0231686442,0.0559061280,0.3248005814,-0.0839604457,9.8114971100
1520520704668724216,-0.0561509858,-0.0129764462,0.0584174489,0.3272057169,-0.0503847012,9.8672238682
1520520704673739216,-0.0576473861,-0.0054046814,0.0598307790,0.2803055761,-0.0503810485,9.8281674709
1520520704678756216,-0.0581360349,0.0056713759,0.0585634602,0.1816950236,-0.1331140576,9.8466401293
1520520704683771216,-0.0603881232,0.0164684712,0.0524273592,0.1877078622,-0.1582964747,9.9058755018
1520520704688787216,-0.0623859685,0.0281339911,0.0484618280,0.2225823258,-0.2050656674,9.8997709396
1520520704693804216,-0.0616205852,0.0380479163,0.0461010997,0.2394182738,-0.2902059487,9.8927172282
1520520704698818216,-0.0595990135,0.0485487449,0.0423897544,0.2033412424,-0.2806100155,9.8977076010
1520520704703835216,-0.0573305848,0.0564301250,0.0375757511,0.2177720550,-0.3213819138,9.8313646925
1520520704708851216,-0.0543039080,0.0660535518,0.0352085991,0.2370131384,-0.3357730975,9.8811636337
1520520704713867216,-0.0505272042,0.0736412244,0.0314717560,0.2153669196,-0.3357714116,9.8755636049
1520520704718882216,-0.0490086300,0.0823869931,0.0301829187,0.2189746227,-0.3393691138,9.8232355198
1520520704723899216,-0.0439775451,0.0879332809,0.0272398180,0.2418234092,-0.3357734721,9.8079017443
1520520704728914216,-0.0391981590,0.0917246073,0.0267187586,0.2586593572,-0.3333765025,9.8414377095
1520520704733929216,-0.0339135798,0.0972637093,0.0264806501,0.2610644926,-0.3225844260,9.8692952303
1520520704738946216,-0.0306464676,0.1001912179,0.0218975333,0.2418234092,-0.3333751913,9.8567094517
1520520704743961216,-0.0266189119,0.1048534887,0.0224667269,0.2081515133,-0.3525588156,9.8524073269
1520520704748978216,-0.0220912166,0.1098168106,0.0195201135,0.2165694873,-0.3669491563,9.8581501434
1520520704753994216,-0.0198278962,0.1121538720,0.0176398764,0.2237848935,-0.3933308075,9.8743756538
1520520704759009216,-0.0175674338,0.1130369244,0.0146663403,0.2189746227,-0.4137158201,9.8442266100
1520520704764024216,-0.0148031859,0.1147943273,0.0116985400,0.1961258361,-0.3969260746,9.8281626200
1520520704769040216,-0.0102808616,0.1145069003,0.0108762782,0.2562542218,-0.4005281789,9.8450130345
1520520704774057216,-0.0067664141,0.1130571835,0.0086942615,0.2430259770,-0.3501632508,9.8253362306
1520520704779072216,-0.0035046808,0.1078069860,0.0110830916,0.2538490864,-0.3873374469,9.8322399984
1520520704784087216,0.0007645335,0.1034276938,0.0148294536,0.2574567895,-0.3789437449,9.7752516441
1520520704789105216,0.0040275880,0.0996366043,0.0164177614,0.2827107115,-0.3261835332,9.7796029628
1520520704794120216,0.0067833796,0.0917630208,0.0190580631,0.2322028675,-0.3297770207,9.7870709469
1520520704799136216,0.0107985664,0.0850510970,0.0233281989,0.2285951644,-0.3369715823,9.8347609802
1520520704804151216,0.0163201819,0.0771734975,0.0278571880,0.2225823258,-0.3573565012,9.8615686952
1520520704809167216,0.0168083446,0.0649282599,0.0304683439,0.2057463779,-0.3549569091,9.9244860009
1520520704814183216,0.0175537925,0.0582245259,0.0312274504,0.1624539402,-0.3753389245,9.8830900793
1520520704819200216,0.0180493060,0.0526869599,0.0317253702,0.1372000182,-0.3717395364,9.8763595137
1520520704824215216,0.0167877153,0.0515325844,0.0273900771,0.1059332577,-0.3897242076,9.9034106963
1520520704829230216,0.0170382262,0.0524133923,0.0249613666,0.0987178514,-0.3933210669,9.8825658434
1520520704834245216,0.0145204903,0.0503792720,0.0225155591,0.1287820442,-0.3981199701,9.9031964856
1520520704839263216,0.0142617584,0.0457206632,0.0211277270,0.1023255545,-0.4221007180,9.8383973221
1520520704844277216,0.0127528167,0.0430895990,0.0240865245,0.1131486640,-0.3933221908,9.8347774806
1520520704849294216,0.0094819723,0.0401744738,0.0240703610,0.1071358254,-0.4029148459,9.7930081783
1520520704854310216,0.0062079563,0.0334647939,0.0264602105,0.1191615025,-0.3849286762,9.8137921788
1520520704859325216,0.0036912240,0.0290857571,0.0291369904,0.1275794765,-0.4185052636,9.8044458333
1520520704864341216,0.0014278095,0.0244074215,0.0347870854,0.1191615025,-0.4221020293,9.7987205569
1520520704869357216,-0.0013413272,0.0171049714,0.0409591978,0.1035281222,-0.4029145649,9.7942054374
1520520704874372216,-0.0086343603,0.0133148458,0.0406732868,0.0951101483,-0.4244984369,9.7338769353
1520520704879389216,-0.0119038874,0.0103953500,0.0422803987,0.0566279814,-0.4784567589,9.7180341020
1520520704884404216,-0.0119051263,0.0068870808,0.0465824560,0.0686536586,-0.4604705891,9.7202237993
1520520704889421216,-0.0151709134,0.0068821587,0.0479412529,0.0951101483,-0.5000442836,9.6804919818
1520520704894436216,-0.0149215983,0.0039618560,0.0503534684,0.0482100075,-0.5180277372,9.6240209653
1520520704899453216,-0.0136691971,0.0004635487,0.0511360954,0.0385894657,-0.5168278475,9.6183027166
1520520704904468216,-0.0139280192,-0.0050728558,0.0510943235,0.0506151429,-0.4856511331,9.6111823995
1520520704909484216,-0.0131810305,-0.0103182104,0.0513234537,0.0337791949,-0.5012386474,9.6473879343
1520520704914499216,-0.0126901352,-0.0187674363,0.0509875049,0.1023255545,-0.4676680541,9.6524987244
1520520704919516216,-0.0109422206,-0.0278033096,0.0522680517,0.1335923151,-0.4592765063,9.6731047987
1520520704924531216,-0.0074313446,-0.0348024442,0.0549136225,0.1071358254,-0.3969191438,9.6767879362
1520520704929547216,-0.0031729036,-0.0449999574,0.0550984261,0.1528333985,-0.3657450519,9.6890963247
1520520704934562216,-0.0019247678,-0.0508256988,0.0545105390,0.1564411016,-0.3333685414,9.7308668197
1520520704939579216,-0.0031881697,-0.0560718410,0.0547434029,0.1179589348,-0.3177767188,9.7463340515
1520520704944594216,-0.0031970534,-0.0613109350,0.0525390202,0.1011229868,-0.3225719692,9.7523133194
1520520704949610216,-0.0034538918,-0.0639269383,0.0500845661,0.1023255545,-0.3657411181,9.7721001578
1520520704954626216,-0.0012038577,-0.0712048380,0.0478604213,0.1011229868,-0.3801307096,9.8406923882
1520520704959642216,-0.0037223894,-0.0752852059,0.0478339654,0.1203640702,-0.3549502592,9.8997498929
1520520704964657216,-0.0054836806,-0.0767420893,0.0475555711,0.1179589348,-0.3381621060,9.8428118785
1520520704969674216,-0.0057409149,-0.0796494772,0.0450988939,0.0746664971,-0.3405570151,9.8385870234
1520520704974689216,-0.0087627030,-0.0837278567,0.0442617337,0.0482100075,-0.3609403417,9.9016201869
1520520704979705216,-0.0120366680,-0.0878034210,0.0423428566,0.0602356846,-0.3441533124,9.9084596293
1520520704984720216,-0.0125404967,-0.0883849301,0.0417982521,0.0590331169,-0.3897205548,9.8550571474
1520520704989737216,-0.0133001522,-0.0910004019,0.0390741856,0.0734639294,-0.3789294150,9.8351497154
1520520704994753216,-0.0153134440,-0.0921623571,0.0374457516,0.0782742003,-0.3369598748,9.8850341584
1520520704999768216,-0.0203443838,-0.0927332550,0.0323102679,0.0878947420,-0.3117786752,9.8639973706
1520520705004785216,-0.0243633577,-0.0901065421,0.0301733761,0.0902998774,-0.3009865987,9.9139356265
1520520705009801216,-0.0276365700,-0.0918430175,0.0252962788,0.1359974505,-0.2686133663,9.9727286038
1520520705014815216,-0.0324153759,-0.0921238893,0.0207036433,0.1985309716,-0.2314448835,9.9546515321
1520520705019832216,-0.0399487072,-0.0871696639,0.0194027079,0.1949232684,-0.2662196748,9.9512341262
1520520705024847216,-0.0472282305,-0.0798820784,0.0173074529,0.2093540810,-0.2818096242,9.9627303065
1520520705029864216,-0.0522527487,-0.0763765068,0.0132852759,0.1660616433,-0.3105856226,9.9655040406
1520520705034878216,-0.0628049668,-0.0743394933,0.0127793481,0.1468205599,-0.3333677921,9.9668756829
1520520705039895216,-0.0718512777,-0.0714175376,0.0084896467,0.1504282631,-0.3657448645,9.9494399805
1520520705044911216,-0.0781356773,-0.0702428060,0.0041814728,0.1937207007,-0.3921293256,9.9327743086
1520520705049927216,-0.0861776358,-0.0705373411,0.0041941848,0.1672642110,-0.4065169502,9.8819115179
1520520705054942216,-0.0932144460,-0.0720021195,0.0060899589,0.1480231276,-0.4053163112,9.8704761900
1520520705059958216,-0.0989974436,-0.0746283016,0.0066217776,0.1552385339,-0.3681435200,9.8552618387
1520520705064973216,-0.1025189792,-0.0801798261,0.0117264451,0.1949232684,-0.4113156660,9.8188912055
1520520705069990216,-0.1062924683,-0.0842657854,0.0135961440,0.2201771904,-0.4496901265,9.7814942116
1520520705075007216,-0.1062941894,-0.0874797563,0.0168182408,0.2153669196,-0.4412957688,9.7617763992
1520520705080022216,-0.1050398594,-0.0921552567,0.0219207099,0.2045438101,-0.4317018025,9.7978988526
1520520705085036216,-0.1032818731,-0.0950778824,0.0254123086,0.1901129976,-0.3885316234,9.8049700808
1520520705090053216,-0.1020239284,-0.0944968063,0.0262260589,0.1684667787,-0.3921273588,9.7970492722
1520520705095069216,-0.0969943451,-0.0921652179,0.0267756009,0.1480231276,-0.3909266261,9.7658692020
1520520705100084216,-0.0939718553,-0.0883818650,0.0289632675,0.1504282631,-0.3885285326,9.8111670674
1520520705105101216,-0.0937154521,-0.0843009263,0.0284528321,0.1768847527,-0.3513572400,9.7887925716
1520520705110117216,-0.0891842402,-0.0778857808,0.0274111554,0.1636565079,-0.3477587884,9.7656749401
1520520705115132216,-0.0833953070,-0.0723523093,0.0293364807,0.2117592164,-0.3369702710,9.7756555093
1520520705120148216,-0.0781105985,-0.0676917315,0.0307149783,0.2370131384,-0.3333748166,9.7475147402
1520520705125164216,-0.0703143954,-0.0633179114,0.0307338562,0.2045438101,-0.3573550963,9.7199627087
1520520705130180216,-0.0640282708,-0.0598151936,0.0293961356,0.1901129976,-0.3537565511,9.6922082064
1520520705135195216,-0.0577400802,-0.0554412358,0.0291472679,0.1865052944,-0.3729425169,9.7038834706
1520520705140212216,-0.0522052137,-0.0504840760,0.0286337007,0.2358105707,-0.3873360420,9.6917961558
1520520705145228216,-0.0439083457,-0.0463963445,0.0267556007,0.2213797581,-0.3945297606,9.6687007534
1520520705150244216,-0.0388801227,-0.0437675441,0.0251429987,0.2081515133,-0.3993252921,9.6583748908
1520520705155259216,-0.0338517233,-0.0408466307,0.0232620738,0.2562542218,-0.3957316172,9.6451195970
1520520705160275216,-0.0273166286,-0.0379214844,0.0200256191,0.2514439509,-0.3717484341,9.6439808865
1520520705165290216,-0.0225356155,-0.0332574613,0.0200523207,0.2658747635,-0.3573598729,9.6496371135
1520520705170306216,-0.0200251715,-0.0323699399,0.0154550425,0.2418234092,-0.3597562806,9.6266306742
1520520705175322216,-0.0167567499,-0.0323737589,0.0173427964,0.2249874613,-0.3681489523,9.6140191469
1520520705180338216,-0.0119834757,-0.0317818349,0.0146329158,0.2478362478,-0.3669515914,9.6172820134
1520520705185355216,-0.0092183104,-0.0317836656,0.0157099655,0.2177720550,-0.3549578457,9.6245358101
1520520705190369216,-0.0062040456,-0.0332415921,0.0165048871,0.2261900290,-0.3429670971,9.6465229165
1520520705195386216,-0.0052002577,-0.0341146234,0.0162258050,0.2285951644,-0.3453655652,9.6534747087
1520520705200402216,-0.0057008756,-0.0326578977,0.0162378539,0.2237848935,-0.3441660502,9.6267910487
1520520705205418216,-0.0054481693,-0.0317843741,0.0165146023,0.2658747635,-0.3297796432,9.6589073704
1520520705210433216,-0.0064560932,-0.0341173010,0.0170397763,0.2490388155,-0.3357740341,9.6753471032
1520520705215447216,-0.0064516945,-0.0312049126,0.0176030990,0.2694824666,-0.3633558560,9.6298513978
1520520705220465216,-0.0041852535,-0.0277074122,0.0176255755,0.2153669196,-0.3705464839,9.6675737479
1520520705225481216,-0.0077043584,-0.0274130354,0.0160110573,0.2334054352,-0.3381710973,9.6499344406
1520520705230496216,-0.0094578166,-0.0224565455,0.0146993873,0.2526465187,-0.3369734555,9.6729888695
1520520705235512216,-0.0094570678,-0.0215809351,0.0141649648,0.2093540810,-0.3501606284,9.6211266363
1520520705240528216,-0.0102071340,-0.0177888610,0.0125719897,0.1612513725,-0.3309706352,9.6331975687
1520520705245545216,-0.0132206029,-0.0142846869,0.0093577167,0.1913155653,-0.3441635214,9.6340799489
1520520705250560216,-0.0152246974,-0.0078670022,0.0064343535,0.1456179922,-0.3513548048,9.6229103176
1520520705255576216,-0.0169806136,-0.0026096582,0.0016078099,0.1203640702,-0.3669416635,9.5976041582
1520520705260591216,-0.0144680134,0.0000268989,-0.0032466757,0.1636565079,-0.3621484735,9.5692866439
1520520705265606216,-0.0137107610,0.0070408190,-0.0107700069,0.1504282631,-0.3561517411,9.5682474089
1520520705270623216,-0.0112008424,0.0085154801,-0.0169861143,0.2009361070,-0.3717445004,9.5782302935
1520520705275638216,-0.0117020287,0.0108521868,-0.0191317633,0.1672642110,-0.3801358609,9.6029712435
1520520705280655216,-0.0089408583,0.0111563093,-0.0234634085,0.1889104299,-0.3645487212,9.6039074950
1520520705285669216,-0.0074393928,0.0094217046,-0.0283493735,0.2406208415,-0.3741458720,9.6615207300
1520520705290687216,-0.0059427652,0.0047761684,-0.0343397529,0.2394182738,-0.3393707061,9.6568499484
1520520705295703216,-0.0041924629,0.0018790378,-0.0403172605,0.2394182738,-0.3153878976,9.6463672660
1520520705300717216,-0.0026877474,0.0004263480,-0.0416839058,0.2297977321,-0.2818112165,9.6568874606
1520520705305734216,-0.0011855802,-0.0016032833,-0.0452193644,0.2887235500,-0.2806166654,9.6330698644
1520520705310750216,0.0003156225,-0.0030443182,-0.0509147439,0.2718876021,-0.2770179329,9.6227709316
1520520705315764216,0.0028225891,-0.0053649402,-0.0544542925,0.2610644926,-0.2650256857,9.6705124858
1520520705320781216,0.0043247994,-0.0076874130,-0.0574508824,0.2382157061,-0.2962015572,9.6033609353
1520520705325798216,0.0043191776,-0.0082541566,-0.0634073383,0.2502413832,-0.2806136683,9.6322822822
1520520705330812216,0.0073267188,-0.0117386629,-0.0674978044,0.2658747635,-0.2650260603,9.6832492491
1520520705335828216,0.0088287959,-0.0146460900,-0.0696872028,0.2478362478,-0.2494358299,9.7078146465
1520520705340846216,0.0085685271,-0.0192995998,-0.0729688562,0.2213797581,-0.2698191566,9.6964705970
1520520705345861216,0.0090714816,-0.0172516984,-0.0759302329,0.1997335393,-0.2949994196,9.6978679881
1520520705350876216,0.0105742643,-0.0189906737,-0.0791929225,0.2093540810,-0.3117881348,9.6513049602
1520520705355891216,0.0110704913,-0.0204328308,-0.0846158893,0.2177720550,-0.3009965266,9.6221589019
1520520705360908216,0.0118193814,-0.0207086229,-0.0903009763,0.2141643518,-0.3165850712,9.7070457272
1520520705365923216,0.0120681320,-0.0212854660,-0.0924702564,0.2153669196,-0.2997971989,9.6965583558
1520520705370940216,0.0108118143,-0.0209938454,-0.0927362456,0.2502413832,-0.3237827235,9.6799722806
1520520705375955216,0.0093044212,-0.0192395730,-0.0951550198,0.2466336801,-0.2902065107,9.6532453433
1520520705380971216,0.0103088285,-0.0183584698,-0.0975851305,0.2526465187,-0.2290508174,9.6868293564
1520520705385986216,0.0120695943,-0.0163144467,-0.0989255654,0.2382157061,-0.2530325019,9.6846689159
1520520705391002216,0.0130823560,-0.0110705883,-0.0983463250,0.2863184146,-0.2638285121,9.6935083894
1520520705396018216,0.0105756561,-0.0075800575,-0.0964211595,0.2791030083,-0.2278537375,9.6970299714
1520520705401034216,0.0133467098,-0.0058452360,-0.0910020370,0.3103697689,-0.2026742237,9.7013496596
1520520705406050216,0.0158676565,-0.0017728808,-0.0879995762,0.3043569303,-0.1655004023,9.7141555189
1520520705411065216,0.0158771086,0.0025862322,-0.0836374956,0.2779004406,-0.1858837290,9.7330272121
1520520705416081216,0.0128768711,0.0116077731,-0.0797753367,0.2947363886,-0.1894824615,9.8200276459
1520520705421098216,0.0118824569,0.0203525572,-0.0810595067,0.3019517949,-0.2026735681,9.7920788234
1520520705426113216,0.0093820884,0.0270417619,-0.0766749742,0.2827107115,-0.2398454227,9.8062480813
1520520705431130216,0.0086402903,0.0357822739,-0.0763363356,0.3079646335,-0.2350508278,9.7874032945
1520520705436143216,0.0071503940,0.0453813471,-0.0703081637,0.2875209823,-0.2482397803,9.7748315597
1520520705441162216,0.0043991266,0.0538253164,-0.0683447390,0.3260031491,-0.2890135518,9.7803074752
1520520705446177216,0.0026621969,0.0657517252,-0.0609455863,0.3296108523,-0.3093992200,9.7454279202
1520520705451193216,0.0006635871,0.0706877206,-0.0546815044,0.3957520765,-0.2890189841,9.7575478468
1520520705456209216,0.0019276829,0.0727118791,-0.0487162667,0.4354368110,-0.3082083216,9.7060459554
1520520705461224216,-0.0013265037,0.0758881486,-0.0384050013,0.4089803213,-0.2902191548,9.6969887749
1520520705466239216,-0.0033287753,0.0743969304,-0.0259672718,0.4270188370,-0.3166016490,9.6480288784
1520520705471256216,-0.0005630964,0.0694175245,-0.0160000000,0.4173982953,-0.3166008997,9.5981503288
1520520705476272216,0.0001921055,0.0650230138,-0.0071067319,0.4222085662,-0.3321900998,9.6260101649
1520520705481288216,0.0009490207,0.0609155170,0.0034120347,0.4222085662,-0.3381858019,9.6387995951
1520520705486303216,0.0029638805,0.0573890962,0.0147445515,0.3861315348,-0.3537718177,9.6333552285
1520520705491320216,0.0057308374,0.0541616396,0.0233724323,0.3464468003,-0.3873446587,9.6384228126
1520520705496335216,0.0059886402,0.0561890464,0.0279868074,0.3512570711,-0.3789510504,9.6383678070
1520520705501351216,0.0102697333,0.0605512900,0.0317998619,0.3332185554,-0.3801487859,9.6675981511
1520520705506366216,0.0122906737,0.0649075485,0.0375109382,0.3560673420,-0.3717565825,9.6545839861
1520520705511381216,0.0135511667,0.0660655662,0.0404935018,0.4005623473,-0.3705609075,9.6216096990
1520520705516397216,0.0208497314,0.0695446396,0.0480819289,0.4739189778,-0.3405881102,9.6394607603
1520520705521415216,0.0248757386,0.0698215740,0.0540286941,0.4354368110,-0.3273945684,9.6328495957
1520520705526429216,0.0314086182,0.0654366120,0.0602057687,0.3789161285,-0.2950133749,9.6356924491
1520520705531446216,0.0392047233,0.0660056792,0.0664183020,0.3680930191,-0.3633635361,9.6439994546
1520520705536460216,0.0459996437,0.0721223136,0.0683462065,0.3115723366,-0.3753505384,9.6689663087
1520520705541477216,0.0515297194,0.0753391790,0.0648432959,0.3019517949,-0.4053282997,9.6876834859
1520520705546493216,0.0560542039,0.0782642661,0.0613400291,0.3235980137,-0.4413041982,9.6944807388
1520520705551509216,0.0630940446,0.0800116879,0.0626930288,0.3608776128,-0.4413071017,9.7173607611
1520520705556525216,0.0691225781,0.0785593135,0.0618590744,0.3704981545,-0.4017362170,9.7300121160
1520520705561540216,0.0764068569,0.0762318209,0.0615572088,0.3464468003,-0.4437042586,9.7233142802
1520520705566556216,0.0821825508,0.0733209685,0.0612536974,0.3452442326,-0.4640895522,9.7024272729
1520520705571574216,0.0867053142,0.0730320846,0.0609725274,0.3368262586,-0.4664871774,9.7001872591
1520520705576588216,0.0899664439,0.0718816666,0.0558171957,0.2983440917,-0.5024583930,9.6575975747
1520520705581603216,0.0949874533,0.0698512284,0.0530868407,0.2754953052,-0.4868677879,9.6624533452
1520520705586619216,0.0972444814,0.0672332959,0.0517099029,0.2574567895,-0.4616844341,9.7021172594
1520520705591635216,0.1020158581,0.0643191360,0.0524904420,0.2273925967,-0.4676777948,9.6780107094
1520520705596652216,0.1030160863,0.0622871224,0.0497675545,0.2189746227,-0.4508891732,9.6804005620
1520520705601666216,0.1017577065,0.0631709817,0.0459889149,0.1804924559,-0.4376956314,9.7133022918
1520520705606683216,0.1004969940,0.0620136925,0.0427358054,0.1420102891,-0.4173072471,9.7020355353
1520520705611699216,0.0999925968,0.0623121644,0.0400335030,0.1408077214,-0.4017183280,9.7194641982
1520520705616714216,0.0994866629,0.0626157354,0.0354373793,0.1384025859,-0.3753370513,9.7415426180
1520520705621730216,0.0972217705,0.0635035715,0.0300373311,0.1564411016,-0.3597496307,9.7506489924
1520520705626746216,0.0962083110,0.0600182182,0.0256837866,0.1059332577,-0.3033860971,9.7743285249
1520520705631763216,0.0939451318,0.0611930683,0.0219092370,0.0927050128,-0.3153764711,9.7942254211
1520520705636778216,0.0916836227,0.0629477737,0.0192213170,0.0927050128,-0.3033850668,9.8058351673
1520520705641794216,0.0856543091,0.0682078146,0.0127794324,0.0626408200,-0.2566162488,9.7758664467
1520520705646810216,0.0821389953,0.0740508806,0.0066078726,0.0061201375,-0.2650058298,9.7764247697
1520520705651826216,0.0793786756,0.0798905999,0.0017876422,0.0013098666,-0.2446200679,9.7927217265
1520520705656842216,0.0766169917,0.0845640527,-0.0027709347,0.0458048720,-0.2242381462,9.8108630639
1520520705661857216,0.0718442977,0.0874825832,-0.0051747492,0.0710587940,-0.2002573045,9.8361610379
1520520705666872216,0.0695840627,0.0895257594,-0.0067782625,0.0614382523,-0.1714771851,9.8548209175
1520520705671889216,0.0630508224,0.0903995384,-0.0075710961,0.0470074397,-0.1810691846,9.8817000439
1520520705676906216,0.0560103701,0.0898249391,-0.0116206625,-0.0335645970,-0.2158379816,9.8348702914
1520520705681921216,0.0512314779,0.0901297500,-0.0172910354,-0.0744518993,-0.2685969758,9.9503719657
1520520705686936216,0.0441934015,0.0913034578,-0.0213272633,-0.0792621701,-0.2626008991,9.9434400755
1520520705691953216,0.0401675707,0.0913186364,-0.0275423513,-0.0395774356,-0.2458160239,10.0092796432
1520520705696968216,0.0358936912,0.0916156315,-0.0302376529,-0.0035004042,-0.2721999230,9.9891977698
1520520705701984216,0.0293542919,0.0881193711,-0.0313343787,0.0373868980,-0.2530168607,9.9306738907
1520520705707000216,0.0238243063,0.0857803014,-0.0291775283,0.0265637886,-0.2254357880,9.9261037656
1520520705712015216,0.0208041805,0.0793548201,-0.0240804635,0.0975152837,-0.2230430331,9.8847357902
1520520705717030216,0.0155172216,0.0706039324,-0.0214318959,0.1011229868,-0.1846708205,9.8509610815
1520520705722048216,0.0104823065,0.0612652751,-0.0168944199,0.1191615025,-0.1750791021,9.8310197037
1520520705727063216,0.0109767104,0.0513409158,-0.0104778368,0.1011229868,-0.2026579269,9.8602757732
1520520705732078216,0.0132368474,0.0454929868,-0.0026806680,0.1011229868,-0.1726794163,9.8614086837
1520520705737095216,0.0107215186,0.0405238967,0.0026971247,0.1035281222,-0.1474976547,9.8683335812
1520520705742111216,0.0097107719,0.0335171624,0.0075154637,0.0878947420,-0.1271110500,9.9161137703
1520520705747127216,0.0097061458,0.0276785454,0.0115291904,0.1083383931,-0.0647573402,9.9449075776
1520520705752142216,0.0087021266,0.0241618696,0.0188091195,0.0999204191,-0.0635575441,9.9810148062
1520520705757158216,0.0074477769,0.0215199774,0.0258256386,0.0866921743,-0.0347771437,9.9869262174
1520520705762174216,0.0079518172,0.0191738010,0.0314883843,0.0470074397,-0.0335749125,9.9594198601
1520520705767189216,0.0067005019,0.0182780307,0.0393298796,0.0530202783,-0.0203848361,9.9488891765
1520520705772206216,0.0054435648,0.0168155167,0.0412149191,0.0205509501,-0.0119883244,9.9282784364
1520520705777222216,0.0077066146,0.0165191909,0.0433728627,-0.0047029719,-0.0311726043,9.9134350806
1520520705782237216,0.0074542533,0.0133029362,0.0474070639,0.0229560855,-0.0023953883,9.8817599134
1520520705787253216,0.0084613774,0.0121261370,0.0517250390,0.0265637886,-0.0191836352,9.8364175548
1520520705792268216,0.0094704853,0.0138697389,0.0536303319,-0.0263491907,-0.0695434119,9.8602245686
1520520705797285216,0.0092203273,0.0135731569,0.0555223968,0.0013098666,-0.0635498640,9.8773816649
1520520705802301216,0.0102265772,0.0138627500,0.0563343907,0.0013098666,-0.0419653364,9.8506313059
1520520705807317216,0.0122367483,0.0138642661,0.0560601110,-0.0383748679,-0.0131828754,9.7638287120
1520520705812332216,0.0124898505,0.0150291742,0.0563390825,-0.0407800033,-0.0167801094,9.8219628279
1520520705817347216,0.0132404931,0.0132840761,0.0552421602,-0.0876801441,-0.0515515289,9.8178046601
1520520705822363216,0.0149920224,0.0095047792,0.0522339882,-0.0600210867,-0.1043158617,9.7711011366
1520520705827380216,0.0179932714,0.0010652790,0.0486468214,-0.0203363522,-0.1247043397,9.7963019155
1520520705832401216,0.0179888767,-0.0003836309,0.0456597011,-0.0600210867,-0.1870565510,9.7793168287
1520520705837411216,0.0197371129,-0.0041520014,0.0385933407,-0.0696416284,-0.2050429080,9.7852387290
1520520705842427216,0.0217388002,-0.0076347163,0.0336931037,-0.0407800033,-0.1774649261,9.7454180184
1520520705847444216,0.0214816090,-0.0108349455,0.0317752952,-0.0263491907,-0.1606780841,9.7615312023
1520520705852459216,0.0224793320,-0.0137367421,0.0274224632,-0.0107158105,-0.1618784421,9.7055972961
1520520705857475216,0.0244859865,-0.0151870496,0.0252432468,-0.0239440553,-0.1750679565,9.6859824672
1520520705862491216,0.0279902801,-0.0207008528,0.0173486430,-0.0311594616,-0.1990502030,9.6628332053
1520520705867505216,0.0327551059,-0.0268129582,0.0153992692,-0.0708441961,-0.2494110100,9.6551335767
1520520705872521216,0.0332444683,-0.0337936066,0.0107457015,-0.0828698733,-0.3033713925,9.6192767849
1520520705877538216,0.0377562820,-0.0401928244,0.0071712960,-0.0636287899,-0.3369488229,9.6051765181
1520520705882552216,0.0415196564,-0.0419272714,0.0025516764,-0.1033135244,-0.3501362768,9.6230078070
1520520705887569216,0.0445229715,-0.0494955317,0.0000533624,-0.0383748679,-0.3801198450,9.6189185356
1520520705892586216,0.0482765762,-0.0593931161,-0.0030052282,-0.0287543262,-0.3417481007,9.6548139388
1520520705897601216,0.0510296471,-0.0666722757,-0.0046892146,-0.0516031127,-0.3357506191,9.6561926322
1520520705902617216,0.0525263570,-0.0733669732,-0.0071780590,-0.0383748679,-0.3201628238,9.7281016003
1520520705907633216,0.0550309047,-0.0771430610,-0.0112698148,-0.0407800033,-0.2793918621,9.7292473968
1520520705912648216,0.0537679929,-0.0797565445,-0.0148045856,0.0037150021,-0.2698022041,9.7601828418
1520520705917664216,0.0555251519,-0.0800421408,-0.0167038970,0.0073227052,-0.2745990468,9.7833952831
1520520705922680216,0.0537651859,-0.0785764377,-0.0202066112,0.0181458146,-0.2698033281,9.7588802372
1520520705927696216,0.0520031538,-0.0779819745,-0.0247981782,0.0554254137,-0.2650096698,9.7550262712
1520520705932711216,0.0487338540,-0.0779752417,-0.0277681156,0.1071358254,-0.2386326079,9.7684429558
1520520705937728216,0.0477266397,-0.0776762383,-0.0307400305,0.0866921743,-0.2350335944,9.7244769634
1520520705942743216,0.0469744212,-0.0741697213,-0.0344995958,0.1095409608,-0.2182474080,9.7498053636
1520520705947759216,0.0434577822,-0.0712492416,-0.0374468357,0.1107435285,-0.2602174165,9.7637803129
1520520705952776216,0.0394348134,-0.0683165756,-0.0449924224,0.0963127160,-0.2973896457,9.8104427812
1520520705957791216,0.0351639251,-0.0659806172,-0.0474016165,0.1059332577,-0.3021869567,9.7708409237
1520520705962807216,0.0331532287,-0.0653949937,-0.0487461660,0.1143512317,-0.3837291611,9.7673520715
1520520705967822216,0.0326556492,-0.0607286675,-0.0503329386,0.1179589348,-0.3753354591,9.7289580205
1520520705972839216,0.0296436269,-0.0581073883,-0.0503073301,0.1600488048,-0.4293000563,9.7274388198
1520520705977854216,0.0298985325,-0.0557776705,-0.0497489204,0.1227692057,-0.4388902762,9.6929467127
1520520705982869216,0.0268831230,-0.0554867390,-0.0500116425,0.1504282631,-0.4281001666,9.7019641239
1520520705987886216,0.0253746675,-0.0569486229,-0.0483966822,0.1865052944,-0.3873322020,9.7027353587
1520520705992902216,0.0216055770,-0.0581221937,-0.0459636606,0.1973284039,-0.4221081172,9.7038260680
1520520705997918216,0.0213581868,-0.0578425626,-0.0416322365,0.2129617841,-0.4508887049,9.6862698070
1520520706002934216,0.0188471313,-0.0575572616,-0.0397315249,0.2129617841,-0.4640792496,9.7118498368
1520520706007949216,0.0133155227,-0.0593055495,-0.0405462332,0.2370131384,-0.5180424418,9.7314248031
1520520706012965216,0.0113056574,-0.0598934768,-0.0389236702,0.2346080030,-0.4928603056,9.7744229834
1520520706017980216,0.0082926628,-0.0596105580,-0.0362103875,0.3368262586,-0.4772794412,9.8024664511
1520520706022997216,0.0037720909,-0.0607924370,-0.0307999609,0.3332185554,-0.4508980709,9.8489615989
1520520706028013216,-0.0014940663,-0.0573190147,-0.0229176517,0.2863184146,-0.4425004352,9.8284913196
1520520706033027216,-0.0062695438,-0.0608306115,-0.0180656348,0.3127749043,-0.4748792872,9.7841039103
1520520706038045216,-0.0077799360,-0.0640422594,-0.0159229213,0.3019517949,-0.5084543761,9.7784312775
1520520706043060216,-0.0095332256,-0.0617206136,-0.0126553188,0.3692955868,-0.4976673572,9.8161160208
1520520706048077216,-0.0085181431,-0.0588260421,-0.0053302156,0.3223954460,-0.4832740194,9.7863427431
1520520706053092216,-0.0072589243,-0.0579564953,-0.0034320587,0.2682798989,-0.4604861367,9.7868472532
1520520706058108216,-0.0067536411,-0.0553309239,-0.0044951680,0.2261900290,-0.4460931735,9.7698107388
1520520706063124216,-0.0029777802,-0.0509601360,-0.0039277307,0.2165694873,-0.4676769518,9.8082761778
1520520706068138216,-0.0024726695,-0.0471631991,-0.0071463148,0.2827107115,-0.4089242224,9.7901429428
1520520706073155216,0.0010507518,-0.0424960261,-0.0084700091,0.2995466595,-0.4173195166,9.8318244397
1520520706078171216,0.0043247678,-0.0357863462,-0.0108598586,0.3055594980,-0.4065277211,9.8317553904
1520520706083186216,0.0058351600,-0.0325746982,-0.0130025721,0.2875209823,-0.3465692950,9.8458182267
1520520706088202216,0.0098597716,-0.0287807535,-0.0146044150,0.3091672012,-0.3249864533,9.8502350634
1520520706093219216,0.0083490383,-0.0281861918,-0.0191964487,0.3452442326,-0.2866167695,9.8417114852
1520520706098234216,0.0111115220,-0.0293499185,-0.0194810209,0.3296108523,-0.1894851776,9.8487417982
1520520706103250216,0.0121218648,-0.0255615258,-0.0194539877,0.3416365294,-0.1319273739,9.8776222182
1520520706108266216,0.0116223055,-0.0223521223,-0.0210518757,0.3151800397,-0.0515829050,9.9219628539
1520520706113281216,0.0126333070,-0.0185659149,-0.0202132048,0.3849289671,0.0383471945,9.9374662756
1520520706118297216,0.0128951595,-0.0127468671,-0.0169226590,0.4113854568,0.0239554489,9.9964921381
1520520706123314216,0.0126544576,-0.0072208576,-0.0130923111,0.4679061393,0.0455355745,10.0075423919
1520520706128329216,0.0124176682,0.0000483601,-0.0073548035,0.4318291079,0.0443392438,9.9881382657
1520520706133344216,0.0106699612,0.0046930694,-0.0010934114,0.4005623473,-0.0048230784,9.9954634038
1520520706138361216,0.0116875137,0.0116772223,0.0024751724,0.3741058577,-0.0515874944,9.9295243139
1520520706143376216,0.0101899255,0.0183748335,0.0038818331,0.3175851752,-0.0587779349,9.8754607017
1520520706148392216,0.0094467631,0.0259490790,0.0044821253,0.2670773312,-0.1271250053,9.8783432543
1520520706153408216,0.0099612828,0.0343979703,0.0050867531,0.2574567895,-0.1523062049,9.8726507311
1520520706158423216,0.0084705201,0.0483903928,0.0027613485,0.2646721958,-0.1259256776,9.8748790632
1520520706163439216,0.0074776427,0.0571300779,0.0033709998,0.2502413832,-0.0719632346,9.8517240245
1520520706168455216,0.0057307747,0.0635281935,0.0077519090,0.2454311124,-0.0479800515,9.8680174733
1520520706173472216,0.0042355584,0.0705106333,0.0115957060,0.2514439509,-0.0192011496,9.8074993983
1520520706178488216,0.0022403359,0.0777769765,0.0181481184,0.2261900290,0.0131776087,9.8193350719
1520520706183502216,0.0007373297,0.0780532017,0.0235640597,0.2394182738,0.0047825955,9.8738352675
1520520706188519216,-0.0017728085,0.0765792690,0.0295096212,0.2514439509,-0.0503788006,9.8493669835
1520520706193534216,-0.0057901241,0.0753954017,0.0357307521,0.2514439509,-0.1259246473,9.8947642661
1520520706198551216,-0.0103083595,0.0777181499,0.0381918508,0.2165694873,-0.1379133354,9.9113854215
1520520706203567216,-0.0108089381,0.0774185557,0.0411665661,0.1865052944,-0.1678895045,9.9058965616
1520520706208583216,-0.0155787350,0.0800347752,0.0428187169,0.1696693465,-0.1978667038,9.9002789461
1520520706213598216,-0.0185911062,0.0835353071,0.0409571734,0.1299846119,-0.2290412640,9.8751284488
1520520706218614216,-0.0190894737,0.0890823426,0.0369421570,0.1167563671,-0.2014600040,9.8729060217
1520520706223630216,-0.0213418326,0.0972460507,0.0348442367,0.1732770496,-0.1798798784,9.8769834117
1520520706228646216,-0.0220872374,0.1036569434,0.0346239989,0.1889104299,-0.1319154791,9.8663251768
1520520706233660216,-0.0220816038,0.1086141225,0.0333090618,0.2261900290,-0.1127321358,9.8485114513
1520520706238677216,-0.0215754425,0.1112367802,0.0333281362,0.2261900290,-0.1391132251,9.8345914494
1520520706243693216,-0.0205687104,0.1112320750,0.0352200905,0.2225823258,-0.1403120845,9.8346277339
1520520706248709216,-0.0205684908,0.1112313466,0.0354906364,0.1576436693,-0.1582941332,9.8271423393
1520520706253725216,-0.0193171794,0.1106636384,0.0300729387,0.1708719142,-0.1990659379,9.8189183336
1520520706258741216,-0.0188217012,0.1083458709,0.0251843945,0.2105566487,-0.2338441010,9.8604031599
1520520706263757216,-0.0165697775,0.1016470981,0.0243174253,0.2273925967,-0.2518325185,9.8312032303
1520520706268772216,-0.0153163609,0.1001943099,0.0229512468,0.2225823258,-0.2770140928,9.8033831518
1520520706273787216,-0.0135657136,0.0949544482,0.0212846888,0.2297977321,-0.3009974632,9.8161198917
1520520706278804216,-0.0135727077,0.0902944811,0.0204374818,0.2658747635,-0.2770174646,9.8285289367
1520520706283819216,-0.0150892079,0.0853469092,0.0179675766,0.2514439509,-0.3141896938,9.8228949272
1520520706288836216,-0.0143452967,0.0786482742,0.0168328619,0.2490388155,-0.3381723149,9.8368874515
1520520706293852216,-0.0113389511,0.0713626572,0.0175833218,0.2875209823,-0.3165907844,9.8086003867
1520520706298867216,-0.0098389049,0.0643641918,0.0196915345,0.3560673420,-0.2662322252,9.8102083741
1520520706303883216,-0.0083399094,0.0585400057,0.0185620889,0.3404339617,-0.2530404630,9.8707791628
1520520706308899216,-0.0045812473,0.0515526245,0.0168784586,0.3596750451,-0.2110720467,9.8612538034
1520520706313915216,-0.0045962938,0.0404800125,0.0167939814,0.3428390971,-0.1906853483,9.8497763558
1520520706318930216,-0.0013411546,0.0323247109,0.0159140299,0.3440416648,-0.1523129484,9.8439165122
1520520706323946216,-0.0018519342,0.0267903933,0.0150610871,0.3789161285,-0.1199388731,9.8656262285
1520520706328962216,0.0019079119,0.0192136871,0.0158079237,0.4137905922,-0.1211407297,9.8803958226
1520520706333977216,0.0074311191,0.0154285827,0.0154982098,0.4065751859,-0.0983564997,9.8932274190
1520520706338994216,0.0084298065,0.0119381897,0.0133052987,0.4173982953,-0.0947599214,9.8803349820
1520520706344010216,0.0096851128,0.0110645283,0.0132962958,0.3861315348,-0.0120167970,9.8573157499
1520520706349026216,0.0109427086,0.0125248570,0.0122228940,0.3668904514,0.0347511781,9.8365388354
1520520706354042216,0.0149620903,0.0145799642,0.0070906160,0.4137905922,0.0323492445,9.7919232066
1520520706359057216,0.0194892132,0.0189597886,0.0044101023,0.4438547850,0.0719185370,9.8032134316
1520520706364074216,0.0207523133,0.0262558205,0.0004051574,0.4655010038,0.0731159915,9.8134608668
1520520706369088216,0.0197559193,0.0335436820,-0.0008901280,0.4727164101,0.0347429360,9.8076173356
1520520706374104216,0.0227752453,0.0364594372,-0.0011440438,0.4486650559,0.0131602816,9.8218182123
1520520706379120216,0.0275467162,0.0358865515,-0.0041333625,0.4390445142,-0.0324063052,9.7557140822
1520520706384135216,0.0293035224,0.0350167293,-0.0054960283,0.4378419465,-0.0515924583,9.7592309285
1520520706389152216,0.0333266363,0.0370594531,-0.0060290261,0.4655010038,-0.0396032083,9.7508150112
1520520706394168216,0.0391059409,0.0379416986,-0.0081974586,0.4967677644,-0.0491987668,9.7017099883
1520520706399184216,0.0403604553,0.0364852683,-0.0082109077,0.5160088478,-0.0527976867,9.7015262155
1520520706404200216,0.0451367129,0.0361891985,-0.0057870854,0.5340473635,-0.0647904958,9.7246052121
1520520706409216216,0.0486620591,0.0382157000,-0.0003671401,0.5605038532,-0.0408097478,9.7510536250
1520520706414231216,0.0519337268,0.0370303173,0.0074637312,0.5833526397,-0.0180278593,9.6915396698
1520520706419246216,0.0521863860,0.0367332038,0.0096254085,0.6062014263,-0.0120339368,9.6901492831
1520520706424264216,0.0511861539,0.0373017388,0.0147720936,0.5653141240,0.0083546349,9.7044731037
1520520706429278216,0.0517048409,0.0442733114,0.0229408911,0.5929731814,-0.0228251703,9.6716942595
1520520706434293216,0.0514670439,0.0524239670,0.0259796091,0.5761372334,-0.0528023697,9.6649145001
1520520706439310216,0.0497120882,0.0556292361,0.0257367842,0.5280345249,-0.0827771338,9.6712226556
1520520706444327216,0.0479694895,0.0658182642,0.0290644100,0.4943626290,-0.1367358304,9.6762515932
1520520706449342216,0.0479820270,0.0745576147,0.0299427402,0.4679061393,-0.1403311912,9.6497833015
1520520706454357216,0.0474904732,0.0830090259,0.0294670513,0.4667035716,-0.1727078889,9.6672587381
1520520706459373216,0.0462424315,0.0911760416,0.0262850806,0.4943626290,-0.2146799579,9.7158404947
1520520706464388216,0.0452459944,0.0987567445,0.0244509264,0.5172114155,-0.1823049460,9.6830464958
1520520706469405216,0.0465081182,0.1022509374,0.0255574534,0.5364524989,-0.1475313723,9.6537717052
1520520706474421216,0.0462628921,0.1072065612,0.0247840749,0.5593012855,-0.1031649562,9.6465331798
1520520706479437216,0.0482781637,0.1098254390,0.0264236243,0.5893654783,-0.0528033999,9.6322457137
1520520706484451216,0.0492884555,0.1109797160,0.0307593841,0.5845552074,-0.0084348296,9.5892499421
1520520706489469216,0.0492939950,0.1135956209,0.0332143049,0.6615195411,-0.0228305089,9.5315697968
1520520706494484216,0.0520571805,0.1121368675,0.0342802391,0.6903811662,-0.0108413525,9.5870600918
1520520706499501216,0.0543189954,0.1097957509,0.0383164423,0.6699375151,0.0467189800,9.5442036232
1520520706504516216,0.0545709881,0.1065738657,0.0445140773,0.7336736038,0.0167355054,9.6005575425
1520520706509531216,0.0578382100,0.1013054575,0.0536665548,0.7096222496,-0.0012497277,9.6159170551
1520520706514546216,0.0593486296,0.0983703500,0.0617579005,0.7084196819,-0.0300290042,9.6020110968
1520520706519564216,0.0626156790,0.0942733073,0.0687549032,0.6819631922,-0.0468149096,9.6127442744
1520520706524580216,0.0656263723,0.0872659631,0.0743774123,0.6001885877,-0.1115621236,9.5961712033
1520520706529595216,0.0656267643,0.0860938691,0.0768034330,0.5568961500,-0.1223510157,9.6500617312
1520520706534610216,0.0688897757,0.0825956210,0.0778528722,0.5508833115,-0.1571256196,9.6745591904
1520520706539626216,0.0686408526,0.0843438297,0.0778666774,0.5761372334,-0.1367421993,9.6905635208
1520520706544643216,0.0673890630,0.0866693146,0.0797806170,0.5797449366,-0.1247510760,9.6881924243
1520520706549658216,0.0668851951,0.0878441254,0.0762733461,0.5749346657,-0.0839799270,9.6707673277
1520520706554675216,0.0658749856,0.0846406871,0.0754391214,0.6182271034,-0.0168314350,9.6795776143
1520520706559690216,0.0671245720,0.0793955294,0.0756673181,0.7120273850,0.0563088253,9.6948633056
1520520706564705216,0.0628485283,0.0750165319,0.0780768192,0.7829788801,0.1258534439,9.6894563098
1520520706569721216,0.0595846662,0.0723709383,0.0861792557,0.7829788801,0.1798147630,9.7161330004
1520520706574738216,0.0520472302,0.0694359286,0.0929346739,0.7481044164,0.1990037259,9.6990215783
1520520706579754216,0.0452672113,0.0694165163,0.0991698311,0.7420915778,0.2229870027,9.7432181871
1520520706584768216,0.0402458882,0.0691064088,0.1053994981,0.6651272442,0.2110015927,9.7311954206
1520520706589785216,0.0327119807,0.0720136582,0.1067884601,0.6013911554,0.1690366418,9.7353431473
1520520706594800216,0.0274431028,0.0760815045,0.1103464811,0.5905680460,0.1138770253,9.7750151769
1520520706599816216,0.0181482059,0.0754819808,0.1152291298,0.5929731814,0.0707077827,9.8006010300
1520520706604832216,0.0100999081,0.0690618147,0.1176300702,0.6025937231,0.0227414165,9.7296633819
1520520706609847216,0.0035575959,0.0600139512,0.1221725696,0.6182271034,0.0407273053,9.7376286837
1520520706614864216,-0.0017220239,0.0535802995,0.1299792939,0.6494938639,0.0695042403,9.7117291211
1520520706619880216,-0.0054945996,0.0462716282,0.1383176403,0.6603169733,0.1030793292,9.7139153220
1520520706624896216,-0.0120337911,0.0383842037,0.1447628533,0.6699375151,0.1438493543,9.7405112350
1520520706629912216,-0.0180634811,0.0342791476,0.1534004002,0.6374681868,0.1690338320,9.7954234813
1520520706634926216,-0.0208254004,0.0330994148,0.1582664679,0.6194296711,0.2002128879,9.7641907675
1520520706639943216,-0.0263428995,0.0368655799,0.1656103751,0.6134168325,0.2589712370,9.8153263292
1520520706644959216,-0.0311034637,0.0438416409,0.1713540607,0.5653141240,0.2385895962,9.8134901223
1520520706649975216,-0.0343626488,0.0496687799,0.1711340439,0.5653141240,0.1930222601,9.7693730869
1520520706654990216,-0.0330954206,0.0572438131,0.1717306023,0.5725295303,0.1762337322,9.7379413406
1520520706660007216,-0.0340892232,0.0648157748,0.1731429989,0.5304396603,0.1834318528,9.7209118422
1520520706665022216,-0.0325727622,0.0715196665,0.1726502378,0.5075908738,0.1774379303,9.7060322135
1520520706670038216,-0.0292940025,0.0787990038,0.1751346606,0.5003754675,0.1438625604,9.7026487535
1520520706675054216,-0.0250149244,0.0849241232,0.1735501357,0.4823369518,0.1354699823,9.6540224687
1520520706680070216,-0.0182275194,0.0884314085,0.1705882063,0.4366393787,0.1234821371,9.6463439465
1520520706685085216,-0.0104357581,0.0901856815,0.1695048928,0.3933469411,0.0743207515,9.7223526285
1520520706690102216,-0.0054085858,0.0939887613,0.1646546323,0.3620801805,0.0323532719,9.6913200001
1520520706695117216,0.0016314000,0.1007115729,0.1579290477,0.3272057169,-0.0036182247,9.7056402543
1520520706700132216,0.0096809327,0.1091765297,0.1536498476,0.2959389563,-0.0252003171,9.7315328009
1520520706705150216,0.0159691783,0.1176480816,0.1466684557,0.2598619249,-0.0503794562,9.6784498868
1520520706710165216,0.0252690501,0.1232069697,0.1396592323,0.2971415240,-0.0671703256,9.6548605217
1520520706715180216,0.0343208379,0.1322674726,0.1307833314,0.2634696281,-0.0683668436,9.6656487282
1520520706720196216,0.0398499062,0.1363657759,0.1245816310,0.2911286855,-0.1319234402,9.6421986078
1520520706725213216,0.0486490661,0.1410401155,0.1213543143,0.2670773312,-0.1523069542,9.6447768756
1520520706730229216,0.0559357324,0.1448513656,0.1137943944,0.2502413832,-0.1894789961,9.6717063069
1520520706735243216,0.0642279470,0.1492472355,0.1056959619,0.2237848935,-0.2086631823,9.7359004450
1520520706740260216,0.0700039585,0.1501404075,0.0994693409,0.2466336801,-0.2554314384,9.7078321983
1520520706745276216,0.0760274816,0.1469484671,0.0953754972,0.2622670604,-0.2842120261,9.7902203175
1520520706750291216,0.0805394718,0.1408413622,0.0915327688,0.3043569303,-0.3129946744,9.8200544474
1520520706755307216,0.0805301451,0.1341402465,0.0912110920,0.3199903106,-0.2710259771,9.7954563318
1520520706760322216,0.0845452927,0.1291846427,0.0925185614,0.2995466595,-0.2350501722,9.8223495485
1520520706765338216,0.0852917130,0.1248192692,0.0905899937,0.3187877429,-0.2182637049,9.7954165859
1520520706770355216,0.0830282162,0.1221900949,0.0927385536,0.3187877429,-0.2074714410,9.8081896454
1520520706775370216,0.0825190676,0.1189919525,0.0900095742,0.2959389563,-0.2290541891,9.8014602258
1520520706780386216,0.0805008047,0.1143341114,0.0880839173,0.2995466595,-0.2566346998,9.8409648999
