#timestamp [ns],w_RS_S_x [rad s^-1],w_RS_S_y [rad s^-1],w_RS_S_z [rad s^-1],a_RS_S_x [m s^-2],a_RS_S_y [m s^-2],a_RS_S_z [m s^-2]
1520511143114427322,0.1802097954,0.0612458520,-0.2017266720,1.0788105375,1.0683547764,9.6996034927
1520511143119441322,0.1648985498,0.0702538273,-0.1945950930,1.0499489123,1.0755518668,9.6824452387
1520511143124459322,0.1503433058,0.0783770180,-0.1834133949,1.0258975581,1.0815494421,9.6733763415
1520511143129476322,0.1350279712,0.0853496723,-0.1779206528,1.0583668863,1.0695555090,9.6637748467
1520511143134491322,0.1222333637,0.0963954101,-0.1696959958,1.0391258029,1.0815484118,9.6593018584
1520511143139508322,0.1069262893,0.1053895453,-0.1574240447,1.0547591832,1.1391059346,9.6625799963
1520511143144523322,0.1001686168,0.1205163011,-0.1489089200,1.0186821518,1.1319139018,9.6896674749
1520511143149539322,0.0908899936,0.1301072231,-0.1409724584,1.0595694540,1.1451012620,9.6206901470
1520511143154555322,0.0826217132,0.1434865378,-0.1330089637,1.0547591832,1.1546947601,9.5939983015
1520511143159572322,0.0743465250,0.1516202026,-0.1248149385,1.0439360738,1.1187213903,9.6080844547
1520511143164588322,0.0678331533,0.1606236112,-0.1147236899,1.0511514801,1.1463010581,9.6068251856
1520511143169602322,0.0598109341,0.1693372298,-0.1054435018,1.0066564747,1.1379105405,9.6479414964
1520511143174621322,0.0543002094,0.1777640905,-0.0975229334,1.0475437769,1.1570936029,9.6393898074
1520511143179636322,0.0525546156,0.1844506768,-0.0920576175,1.0631771572,1.1510966832,9.6194870412
1520511143184652322,0.0490515961,0.1902529508,-0.0830786071,1.1040644594,1.1199158477,9.5982008809
1520511143189668322,0.0455531478,0.1977962476,-0.0713807992,1.0824182406,1.0983330060,9.5995947640
1520511143194683322,0.0433130872,0.2073826421,-0.0607519469,1.0619745895,1.1367070917,9.5672163003
1520511143199699322,0.0453438757,0.2163893981,-0.0506765669,1.0271001258,1.1630908972,9.5582328699
1520511143204715322,0.0483777974,0.2259887866,-0.0441157043,0.9838076881,1.1810813753,9.5609609997
1520511143209732322,0.0511485454,0.2283100194,-0.0400448651,0.9549460630,1.1834819040,9.5961039010
1520511143214748322,0.0504132473,0.2376143613,-0.0326675870,0.9092484899,1.1906803056,9.5942173892
1520511143219763322,0.0481638248,0.2437194385,-0.0277468756,0.9032356514,1.1714945271,9.6245103668
1520511143224780322,0.0439032668,0.2504115961,-0.0247118055,0.9284895733,1.1475097518,9.6754222813
1520511143229796322,0.0398884171,0.2518538317,-0.0198233964,0.9296921410,1.1487087986,9.7079494377
1520511143234812322,0.0368814874,0.2541655157,-0.0130363636,0.9357049796,1.1187298197,9.7404601766
1520511143239828322,0.0270890071,0.2567688396,-0.0073166898,0.9308947088,1.1307215986,9.7172524243
1520511143244844322,0.0165363890,0.2570509900,-0.0054010431,0.9729845787,1.1163286354,9.7610182497
1520511143249859322,0.0049800223,0.2564498518,-0.0002436480,0.9429203859,1.0959455897,9.7555200351
1520511143254875322,-0.0053164200,0.2578867123,0.0057386128,0.9453255213,1.0731617343,9.7136816601
1520511143259893322,-0.0138572479,0.2561161184,0.0127753362,0.9272870056,1.0671674371,9.6964309233
1520511143264907322,-0.0221463378,0.2543441661,0.0203526846,0.9092484899,1.0839568079,9.6768336812
1520511143269923322,-0.0259159104,0.2534648936,0.0217057457,0.8900074065,1.0923522895,9.6467970339
1520511143274939322,-0.0276800204,0.2487976814,0.0232967188,0.8515252397,1.0695716185,9.6704366922
1520511143279957322,-0.0327132145,0.2426729950,0.0246120979,0.8779817294,1.0719678389,9.6469339632
1520511143284972322,-0.0302023863,0.2394614655,0.0272884357,0.8827920002,1.0815605876,9.6294456290
1520511143289988322,-0.0271921674,0.2356753765,0.0269833890,0.8611457814,1.0539820437,9.6099267676
1520511143295004322,-0.0244376461,0.2289768007,0.0261154864,0.8743740263,1.0431887497,9.5540256262
1520511143300020322,-0.0194151077,0.2240143064,0.0301265480,0.8900074065,1.0587763576,9.6235868963
1520511143305036322,-0.0148961785,0.2184695745,0.0338635509,0.9405152505,1.0947466366,9.6683838180
1520511143310052322,-0.0103788331,0.2117593045,0.0375916614,0.9705794433,1.1091339802,9.6727257353
1520511143315069322,-0.0071209810,0.2000826220,0.0458835934,0.9765922819,1.1295188991,9.7388895367
1520511143320084322,-0.0046162844,0.1863542975,0.0584900982,0.9874153913,1.1870767964,9.7701059496
1520511143325100322,-0.0036188634,0.1691112856,0.0775658279,1.0042513393,1.3393663190,9.8650893770
1520511143330116322,-0.0028800998,0.1422335467,0.1036028558,0.9152613285,1.4976597857,9.9204219642
1520511143335133322,-0.0051648493,0.1065999787,0.1344486179,0.7577249581,1.3693640299,9.9429990371
1520511143340149322,-0.0019272580,0.0715746555,0.1566310897,0.6603169733,1.1487297784,9.8535150767
1520511143345165322,0.0055784735,0.0409545535,0.1666644081,0.6206322388,0.9772557886,9.8587171349
1520511143350182322,0.0133352529,0.0150185552,0.1686164522,0.5292370926,0.8405608985,9.7958221063
1520511143355197322,0.0248581354,-0.0103193570,0.1654255697,0.4618933007,0.7386392075,9.7233619142
1520511143360213322,0.0378973574,-0.0251478962,0.1552777246,0.4390445142,0.6415106127,9.6830039884
1520511143365229322,0.0504380786,-0.0350143543,0.1419220546,0.3765109931,0.5887533044,9.6673940869
1520511143370244322,0.0657479717,-0.0407981606,0.1277807362,0.3019517949,0.6187376219,9.6227669527
1520511143375262322,0.0815668489,-0.0392855020,0.1093653271,0.2346080030,0.6631110626,9.6303520340
1520511143380277322,0.0903531892,-0.0339832306,0.0893686110,0.2454311124,0.6643093600,9.6232726554
1520511143385293322,0.0996423936,-0.0275108537,0.0677565785,0.2875209823,0.6990811542,9.6669905379
1520511143390310322,0.1026561645,-0.0166738124,0.0475422898,0.4198034308,0.6654949198,9.6738707309
1520511143395325322,0.1036639396,-0.0043886488,0.0303188551,0.5484781760,0.6690823194,9.7074791004
1520511143400342322,0.1006552379,0.0084660536,0.0174360685,0.6711400828,0.7158392426,9.7352931793
1520511143405357322,0.0931264544,0.0227715359,0.0061960738,0.7276607653,0.7745927213,9.7695500627
1520511143410373322,0.0813284410,0.0356023963,0.0009049076,0.7096222496,0.8237588836,9.7441105286
1520511143415388322,0.0682728317,0.0469729281,-0.0033128568,0.7733583384,0.8825118004,9.8108372123
1520511143420405322,0.0534600163,0.0574584190,-0.0037463808,0.7565223904,0.9436692732,9.7656178326
1520511143425421322,0.0401535904,0.0685345541,-0.0068837180,0.7889917186,1.0036237656,9.7722161928
1520511143430437322,0.0286081028,0.0804833466,-0.0092060153,0.8190559115,1.0228076708,9.8067691756
1520511143435454322,0.0140406508,0.0880616467,-0.0120971500,0.8827920002,1.0347941111,9.7817320912
1520511143440470322,0.0032478679,0.0976731025,-0.0120037191,0.9525409276,1.0755594532,9.7786891525
1520511143445486322,-0.0062897420,0.1058259427,-0.0111120995,0.9320972765,1.0887515901,9.8241988899
1520511143450501322,-0.0148236582,0.1107644772,-0.0067297041,1.0114667455,1.1427067276,9.8559137667
1520511143455518322,-0.0188369201,0.1148357294,-0.0042562003,1.0307078289,1.1630906162,9.9486781233
1520511143460534322,-0.0246123945,0.1177458534,-0.0036821430,1.0319103966,1.1714845055,9.9486582329
1520511143465549322,-0.0291370946,0.1162849732,-0.0028732197,1.0439360738,1.2050595008,9.9636163122
1520511143470564322,-0.0286337560,0.1142338236,0.0014390196,1.0463412092,1.2134532964,9.9856654519
1520511143475582322,-0.0303989245,0.1078139336,0.0046399295,1.0848233760,1.1906666313,9.9434759252
1520511143480598322,-0.0314190801,0.0961552450,0.0056350566,1.0884310792,1.1415015929,9.9864880792
1520511143485614322,-0.0291683953,0.0859482030,0.0090701447,1.0968490531,1.1247129714,9.9643417794
1520511143490630322,-0.0279293274,0.0716642976,0.0113937930,1.0463412092,1.0623616031,9.9753534930
1520511143495646322,-0.0254363567,0.0570967842,0.0110074256,1.0307078289,1.0251894675,9.9453261655
1520511143500661322,-0.0234503785,0.0410801640,0.0076348714,1.0463412092,1.0191925478,9.9951520365
1520511143505679322,-0.0194595962,0.0212777895,0.0036885914,1.0379232352,0.9520413397,9.9697322879
1520511143510694322,-0.0154674536,0.0011782030,0.0019044556,1.0258975581,0.9172672041,9.9536132339
1520511143515711322,-0.0097152037,-0.0168751752,-0.0020317529,1.0439360738,0.9316554842,9.9220457392
1520511143520725322,-0.0012020109,-0.0375506596,-0.0057225572,1.0415309384,0.9592359013,9.8941507997
1520511143525741322,0.0068119284,-0.0556031516,-0.0096629661,1.0355180998,0.9832191781,9.8302680207
1520511143530758322,0.0135713965,-0.0724920547,-0.0130510574,1.0535566155,1.0000057391,9.8393732257
1520511143535775322,0.0236002545,-0.0885098949,-0.0148152714,1.0860259437,1.0107954741,9.7786151795
1520511143540789322,0.0311214050,-0.1001557665,-0.0173531095,1.1124824334,1.0383736433,9.7434664548
1520511143545806322,0.0401582207,-0.1071439939,-0.0179643574,1.1473568971,1.0887348250,9.7221593048
1520511143550821322,0.0484428139,-0.1120891828,-0.0199113730,1.1918519025,1.1187098701,9.7077512568
1520511143555838322,0.0564882498,-0.1085865042,-0.0209818147,1.2507777204,1.1282984042,9.7060062103
1520511143560854322,0.0670497947,-0.1039224019,-0.0201542100,1.2579931267,1.1354926847,9.7268475551
1520511143565871322,0.0715835117,-0.0966374734,-0.0195659421,1.2351443401,1.1426893068,9.7689001175
1520511143570886322,0.0771273050,-0.0867340609,-0.0173362580,1.2868547518,1.1474818411,9.8323100402
1520511143575902322,0.0794076478,-0.0733309434,-0.0166971048,1.2555879913,1.1582765401,9.8779274618
1520511143580918322,0.0774099711,-0.0643002675,-0.0160833635,1.2507777204,1.1510820722,9.9651420947
1520511143585934322,0.0721445275,-0.0567314364,-0.0141219409,1.2291315016,1.1330966517,10.0106939400
1520511143590950322,0.0643578313,-0.0526485493,-0.0165112623,1.2122955536,1.1462885076,10.0736007216
1520511143595967322,0.0515422967,-0.0514851187,-0.0175607507,1.2219160953,1.1223049499,10.0723683240
1520511143600981322,0.0397356073,-0.0482845163,-0.0175143607,1.2363469079,1.1438883536,10.1279897250
1520511143605999322,0.0269202962,-0.0456583356,-0.0207171008,1.2399546110,1.1534811960,10.1384045507
1520511143611014322,0.0098325482,-0.0450815331,-0.0209514634,1.2892598872,1.1522782155,10.1158450776
1520511143616031322,-0.0054952259,-0.0430434766,-0.0225307070,1.2820444809,1.1438847945,10.1333556526
1520511143621046322,-0.0230757156,-0.0348894164,-0.0232474277,1.2832470487,1.1546769647,10.1623870223
1520511143626063322,-0.0411700624,-0.0337229544,-0.0261809361,1.2700188038,1.2218298586,10.1624502950
1520511143631079322,-0.0602726429,-0.0357664865,-0.0275137562,1.2772342101,1.2386172626,10.1449315346
1520511143636095322,-0.0821404788,-0.0386859837,-0.0285775658,1.4107192262,1.1630610197,10.1553273812
1520511143641111322,-0.1014949344,-0.0427765903,-0.0272200218,1.4347705805,1.1810462528,10.1411300125
1520511143646126322,-0.1208426194,-0.0436699799,-0.0228620190,1.4263526065,1.1414752745,10.0622247473
1520511143651142322,-0.1396879224,-0.0430989656,-0.0211992932,1.4443911222,1.1510669930,10.0411212255
1520511143656159322,-0.1570274083,-0.0425208047,-0.0219742808,1.4059089554,1.1510699901,10.0484686510
1520511143661175322,-0.1705947734,-0.0404864296,-0.0219335162,1.4492013930,1.0899104567,10.0422961855
1520511143666191322,-0.1861728780,-0.0375735895,-0.0237761698,1.4191372002,1.0899127982,9.9926166219
1520511143671206322,-0.1964729583,-0.0337830715,-0.0261630471,1.3638190854,1.0803239832,9.9269222038
1520511143676224322,-0.2075315103,-0.0331973501,-0.0288435240,1.3926807105,1.0827200162,9.8882881933
1520511143681239322,-0.2140650564,-0.0317371599,-0.0309846410,1.3469831374,1.0755287327,9.8294706598
1520511143686256322,-0.2173282834,-0.0267747048,-0.0347284236,1.3048932675,1.0647397470,9.7764322390
1520511143691271322,-0.2183296445,-0.0215192507,-0.0387447297,1.3024881321,1.0707356365,9.7520447793
1520511143696286322,-0.2140507390,-0.0142227657,-0.0424847294,1.3205266478,1.0623402486,9.7216616461
1520511143701302322,-0.2110295194,-0.0092644051,-0.0438052671,1.2952727258,1.0467533900,9.6998419185
1520511143706319322,-0.2027310244,-0.0043039770,-0.0451356060,1.2940701581,1.0155758326,9.6917490187
1520511143711335322,-0.1926743589,0.0009528955,-0.0480902642,1.3217292155,0.9951882912,9.6519867868
1520511143716352322,-0.1811122330,0.0041692101,-0.0505221926,1.3241343509,0.9795992784,9.6543028660
1520511143721366322,-0.1680398522,0.0085487399,-0.0518658454,1.3337548926,0.9172432271,9.6775129102
1520511143726384322,-0.1539646518,0.0111803563,-0.0532247036,1.3349574603,0.8980568867,9.7019249376
1520511143731400322,-0.1388882628,0.0097278841,-0.0527227307,1.3998961168,0.8968526886,9.6966454581
1520511143736416322,-0.1210461322,0.0103205572,-0.0538336054,1.3301471895,0.8968581209,9.7077836470
1520511143741432322,-0.1074726944,0.0132419044,-0.0546482153,1.3000829966,0.9208432709,9.7278093338
1520511143746448322,-0.0936534582,0.0117911252,-0.0549555464,1.3157163769,0.9196429129,9.7532255044
1520511143751462322,-0.0785767124,0.0123863575,-0.0574140167,1.2531828558,0.9028598172,9.7468776744
1520511143756480322,-0.0672697156,0.0118102042,-0.0582511031,1.2483725850,0.9184490174,9.7457471492
1520511143761496322,-0.0564643913,0.0124015775,-0.0598900014,1.2219160953,0.8968665503,9.7762414514
1520511143766512322,-0.0461580618,0.0138588946,-0.0585452922,1.2447648818,0.8920682091,9.7678887250
1520511143771527322,-0.0368596052,0.0156174005,-0.0609841355,1.2122955536,0.8560965252,9.7775369933
1520511143776544322,-0.0280646323,0.0144516662,-0.0596566337,1.2147006890,0.8572954783,9.7693774062
1520511143781560322,-0.0235373879,0.0150260094,-0.0558729460,1.2014724442,0.8740844745,9.7160311692
1520511143786577322,-0.0202714754,0.0126889288,-0.0531913391,1.2279289339,0.8800781161,9.7029842278
1520511143791592322,-0.0124805570,0.0112263171,-0.0499703722,1.2255237984,0.8524980736,9.7227909799
1520511143796607322,-0.0092130606,0.0100547746,-0.0472798730,1.2616008298,0.8884694765,9.6887025734
1520511143801623322,-0.0046869610,0.0094621229,-0.0429639858,1.2676136684,0.9004604125,9.6804973470
1520511143806640322,-0.0004129520,0.0082866036,-0.0386520781,1.2315366370,0.9160520478,9.6506175545
1520511143811656322,0.0058777829,0.0117740244,-0.0343083349,1.2086878505,0.9712142868,9.7088933586
1520511143816672322,0.0104127270,0.0181767866,-0.0307507313,1.1690031159,0.9604251138,9.7174251572
1520511143821687322,0.0126823279,0.0210784062,-0.0258628749,1.2579931267,0.9544224808,9.7293484133
1520511143826705322,0.0162108849,0.0251431425,-0.0198862761,1.2543854235,0.9568210426,9.7491376370
1520511143831721322,0.0177262834,0.0286308780,-0.0163453028,1.1665979805,0.9724167053,9.7860033673
1520511143836737322,0.0184828536,0.0268661123,-0.0101374858,1.1593825742,0.9724172673,9.8313972118
1520511143841753322,0.0192454965,0.0300570688,-0.0047035142,1.1978647410,0.9220503724,9.8357203381
1520511143846768322,0.0210132877,0.0320777821,0.0026135196,1.1545723034,0.8908760931,9.8501178504
1520511143851783322,0.0235302277,0.0320656549,0.0074786785,1.0595694540,0.8788920880,9.8580271070
1520511143856800322,0.0237873719,0.0340952470,0.0112814159,0.9838076881,0.8573134610,9.9006227560
1520511143861816322,0.0222796612,0.0320454949,0.0147857513,0.9176664639,0.8489246293,9.9175447348
1520511143866832322,0.0175033094,0.0300002904,0.0161317869,0.8707663231,0.8477291416,9.9180024013
1520511143871848322,0.0139811662,0.0270850668,0.0161160902,0.8527278074,0.8045614913,9.9461115283
1520511143876865322,0.0107131798,0.0256239505,0.0171932257,0.8142456406,0.7637937140,9.9430394158
1520511143881881322,0.0069443560,0.0256202884,0.0180118643,0.7998148280,0.7589982762,9.9455088417
1520511143886896322,0.0001581428,0.0244506351,0.0185566652,0.8202584792,0.7937717563,9.9905995591
1520511143891913322,-0.0071275003,0.0256118611,0.0191201843,0.7974096926,0.7793838508,10.0012952829
1520511143896928322,-0.0161768534,0.0238607380,0.0188531020,0.8455124011,0.7901723682,9.9903572610
1520511143901944322,-0.0262307512,0.0191800787,0.0242471195,0.8190559115,0.7865770074,10.0022397198
1520511143906960322,-0.0335205303,0.0171353465,0.0250567305,0.7841814478,0.8177573746,10.0525209536
1520511143911978322,-0.0430754254,0.0145157004,0.0226195452,0.7637377967,0.8453391965,10.0643144843
1520511143916993322,-0.0511191049,0.0110071943,0.0258543540,0.7192427913,0.8501392236,10.0345271512
1520511143922008322,-0.0657028855,0.0042974544,0.0266419307,0.6927863016,0.8549378459,10.0708064477
1520511143927025322,-0.0752568632,-0.0000814254,0.0282495953,0.6891785985,0.8993063225,10.0824197369
1520511143932041322,-0.0845584875,-0.0041710075,0.0306706539,0.6927863016,0.8921111990,10.0858780696
1520511143937057322,-0.0946144943,-0.0094300652,0.0344369499,0.6903811662,0.8885139650,10.1230935943
1520511143942072322,-0.1024055108,-0.0117722063,0.0374096385,0.6723426505,0.9136973188,10.1627575084
1520511143947089322,-0.1101978092,-0.0173297752,0.0441455157,0.6506964316,0.9101015834,10.1711067151
1520511143952104322,-0.1172421427,-0.0243308597,0.0459990511,0.6374681868,0.9184965967,10.1793622931
1520511143957121322,-0.1210151065,-0.0290039585,0.0494875793,0.5977834523,0.8813263343,10.1240018996
1520511143962137322,-0.1252879864,-0.0325153584,0.0543386627,0.5905680460,0.8609415091,10.1554698955
1520511143967154322,-0.1252952509,-0.0398087127,0.0575296363,0.5532884469,0.8321650424,10.1268072175
1520511143972168322,-0.1230328205,-0.0418591732,0.0618386085,0.4895523581,0.8021914958,10.0821332048
1520511143977185322,-0.1215240240,-0.0442034989,0.0669583955,0.4570830299,0.8225794118,10.0533757637
1520511143982201322,-0.1182553828,-0.0442080464,0.0691166953,0.3921443734,0.7902076780,10.0377693936
1520511143987217322,-0.1127221041,-0.0418799032,0.0710180333,0.3717007222,0.7530359171,10.0321939093
1520511143992233322,-0.1094495896,-0.0383849227,0.0721208265,0.3704981545,0.7566334320,10.0170942349
1520511143997250322,-0.1051709977,-0.0334289835,0.0718801388,0.3115723366,0.7194646682,10.0467576310
1520511144002264322,-0.0983752384,-0.0255589430,0.0719275606,0.2562542218,0.7302612404,9.9845297660
1520511144007282322,-0.0961061158,-0.0208995466,0.0733116589,0.2574567895,0.7590405169,9.9879764287
1520511144012298322,-0.0908196862,-0.0130249978,0.0714680597,0.2285951644,0.7518479222,9.9603729112
1520511144017314322,-0.0855269291,-0.0034152536,0.0745076252,0.2153669196,0.7854248843,9.9651175011
1520511144022329322,-0.0799855547,0.0050326932,0.0761851022,0.1997335393,0.7818286806,9.9722460386
1520511144027345322,-0.0731930493,0.0111573403,0.0751370018,0.1780873205,0.8130080175,10.0049663575
1520511144032362322,-0.0671575649,0.0146577744,0.0746113857,0.1359974505,0.8465872275,9.9890732776
1520511144037377322,-0.0608701153,0.0210830787,0.0700493453,0.1239717734,0.8441898832,9.9717605076
1520511144042394322,-0.0548345407,0.0254613086,0.0681776689,0.0794767680,0.8489899103,9.9779996371
1520511144047409322,-0.0480459439,0.0313062260,0.0627986112,0.0878947420,0.8765694844,9.9674315113
1520511144052425322,-0.0377434721,0.0351179292,0.0555036365,0.0409946012,0.8525903287,9.9446685162
1520511144057442322,-0.0297040932,0.0395187996,0.0455118494,-0.0022978365,0.8238143303,9.9579015459
1520511144062458322,-0.0199094958,0.0404208312,0.0365723019,0.0109304084,0.8154193171,9.9089709295
1520511144067474322,-0.0148928733,0.0398684401,0.0260072313,0.0313740595,0.7626555462,9.8797697956
1520511144072489322,-0.0060994254,0.0430982403,0.0181695190,0.0049175698,0.7290816749,9.8696007528
1520511144077506322,-0.0000747104,0.0422439320,0.0116585469,0.0109304084,0.6859121514,9.8114771260
1520511144082522322,0.0046824235,0.0332303647,0.0050876620,-0.0155260813,0.6451434375,9.7571536289
1520511144087538322,0.0117065708,0.0282977952,-0.0017268461,-0.0047029719,0.6379477520,9.7733253148
1520511144092554322,0.0174742201,0.0219012550,-0.0061152230,0.0121329761,0.6091670706,9.6941637193
1520511144097570322,0.0212192940,0.0073488025,-0.0119148419,0.0157406792,0.5743917173,9.6790546436
1520511144102585322,0.0287385549,-0.0048761959,-0.0158098557,0.0205509501,0.5264257258,9.6465145662
1520511144107603322,0.0352566624,-0.0162369042,-0.0161792367,0.0854896066,0.4520739619,9.6157392494
1520511144112618322,0.0422752545,-0.0296392926,-0.0157534751,0.0542228460,0.4244961673,9.6160704756
1520511144117634322,0.0520660019,-0.0398470230,-0.0109796592,0.0409946012,0.3657393168,9.5523386114
1520511144122649322,0.0560732263,-0.0520937959,-0.0072928538,0.0397920335,0.3537480062,9.4698497891
1520511144127667322,0.0638534067,-0.0625944270,-0.0022469813,0.0241586532,0.2973896239,9.4433276028
1520511144132683322,0.0728927196,-0.0716398284,0.0036193107,0.0265637886,0.2674109260,9.4259012669
1520511144137699322,0.0806802429,-0.0783597449,0.0113995423,0.0638433877,0.2530183375,9.3906881236
1520511144142714322,0.0892273787,-0.0821713482,0.0213649718,0.0650459554,0.2746027714,9.3639260595
1520511144147731322,0.0967694093,-0.0851055496,0.0299862079,0.0566279814,0.2554171803,9.3698374241
1520511144152745322,0.1035633456,-0.0857177113,0.0418731796,0.0506151429,0.2230408571,9.3513332182
1520511144157762322,0.1118649024,-0.0851579168,0.0516018762,0.0217535178,0.2470259134,9.3271857298
1520511144162778322,0.1204216235,-0.0840254527,0.0651221947,0.0758690649,0.2110474860,9.2918297638
1520511144167794322,0.1267189800,-0.0837796832,0.0829687789,0.0890973097,0.1750722431,9.2963846642
1520511144172810322,0.1357822113,-0.0809038141,0.0983953237,0.0686536586,0.1223116567,9.3094186845
1520511144177827322,0.1425784724,-0.0824017843,0.1146043605,0.0518177106,0.1235121083,9.2270691652
1520511144182843322,0.1486182888,-0.0844769915,0.1286459842,0.0241586532,0.1307091051,9.2203585018
1520511144187860322,0.1491290408,-0.0891870235,0.1464655105,0.0061201375,0.1391044929,9.3100109767
1520511144192875322,0.1516485173,-0.0930126446,0.1607708756,0.0722613617,0.1379002012,9.2861254889
1520511144197890322,0.1496461595,-0.0939181800,0.1721308678,0.1179589348,0.1354983613,9.3240337859
1520511144202906322,0.1466438363,-0.0930852716,0.1870231620,0.1925181330,0.0827303757,9.3245216673
1520511144207922322,0.1391170756,-0.0940068131,0.2035337941,0.2213797581,0.0527496173,9.3626207299
1520511144212939322,0.1303359770,-0.0931798113,0.2197895524,0.1973284039,0.0215738395,9.3152373317
1520511144217955322,0.1192896331,-0.0920491994,0.2311819082,0.2129617841,-0.0371852588,9.2558731219
1520511144222969322,0.1047311313,-0.0871348807,0.2436918818,0.1624539402,-0.0096010954,9.2307706725
1520511144227987322,0.0904199766,-0.0822073517,0.2513315626,0.1227692057,-0.0383773748,9.2032935486
1520511144233004322,0.0730930203,-0.0758167973,0.2562825005,0.1335923151,-0.0647593070,9.1392960111
1520511144238019322,0.0547606099,-0.0676695884,0.2580020931,0.1215666379,-0.1007325831,9.1231781265
1520511144243035322,0.0424592382,-0.0601049709,0.2605176758,0.0927050128,-0.1091243182,9.0630357476
1520511144248051322,0.0296599772,-0.0487510946,0.2625220003,0.1035281222,-0.0959346165,8.9955131900
1520511144253066322,0.0150997348,-0.0379770344,0.2631724162,0.1083383931,-0.1175195188,8.9536502355
1520511144258084322,0.0015468008,-0.0251607033,0.2630248891,0.1516308308,-0.1654885075,8.8881955656
1520511144263099322,-0.0069781336,-0.0111783219,0.2634180117,0.1167563671,-0.2002608636,8.8920553550
1520511144268115322,-0.0149980476,0.0057232007,0.2619386104,0.1155537994,-0.1618882764,8.8571653225
1520511144273131322,-0.0232681118,0.0252550983,0.2575036787,0.1071358254,-0.1127228634,8.9106579369
1520511144278148322,-0.0290283435,0.0468473398,0.2457749023,0.0770716326,-0.1007291177,8.9225603095
1520511144283163322,-0.0327786707,0.0672711887,0.2353862291,0.1095409608,-0.0743505572,8.9721907375
1520511144288179322,-0.0395440155,0.0868138751,0.2271608546,0.1528333985,-0.0299857333,8.9728882339
1520511144293196322,-0.0422872107,0.1089878818,0.2162425613,0.1804924559,-0.0191956237,9.0632557220
1520511144298212322,-0.0472952631,0.1288299262,0.2053106839,0.1528333985,-0.0048037844,9.0623487623
1520511144303226322,-0.0538060001,0.1542156987,0.1914478405,0.1540359662,0.0683436878,9.0762114550
1520511144308244322,-0.0603242173,0.1737723237,0.1780816272,0.1299846119,0.0911292290,9.1508005517
1520511144313260322,-0.0681016573,0.1909959234,0.1652410547,0.1600488048,0.1211053981,9.1330465325
1520511144318276322,-0.0736159612,0.2073375144,0.1556361631,0.1528333985,0.1714698578,9.1667698253
1520511144323291322,-0.0829015940,0.2228056603,0.1452199655,0.1576436693,0.1702703428,9.1864806216
1520511144328308322,-0.0884213551,0.2344821852,0.1366616881,0.1540359662,0.1810628876,9.2109102358
1520511144333324322,-0.0962120422,0.2403345040,0.1264398742,0.1420102891,0.1870595263,9.2342643187
1520511144338341322,-0.1047586957,0.2438518091,0.1175544052,0.1299846119,0.1606793736,9.2715957013
1520511144343356322,-0.1092884413,0.2438711614,0.1097169753,0.1131486640,0.1522867018,9.2915242047
1520511144348372322,-0.1168409003,0.2386444107,0.1018451305,0.1311871796,0.1378956119,9.3018219565
1520511144353386322,-0.1216313145,0.2322553902,0.0931476217,0.1420102891,0.1738689816,9.2993572429
1520511144358404322,-0.1211480170,0.2232459766,0.0844203039,0.1889104299,0.1690687672,9.2698518242
1520511144363420322,-0.1234294967,0.2116028212,0.0794657549,0.1901129976,0.1606746906,9.2291732661
1520511144368437322,-0.1181700748,0.2017123834,0.0739694509,0.2237848935,0.2194299488,9.2322746588
1520511144373452322,-0.1139177379,0.1912424250,0.0671178381,0.2526465187,0.1882500500,9.2401591479
1520511144378468322,-0.1061507419,0.1763950642,0.0632023498,0.2310002998,0.1930482976,9.2566351769
1520511144383484322,-0.0958700048,0.1638877770,0.0563239741,0.2574567895,0.2206264668,9.2702964983
1520511144388500322,-0.0863397770,0.1537105422,0.0497353291,0.2562542218,0.2518042114,9.2726020885
1520511144393516322,-0.0750536250,0.1412029204,0.0431256324,0.2670773312,0.2422102451,9.3166675679
1520511144398533322,-0.0625120375,0.1269431131,0.0381235389,0.2863184146,0.2709881167,9.4140723150
1520511144403547322,-0.0522310416,0.1126787775,0.0344783754,0.3019517949,0.2254195631,9.4069917205
1520511144408564322,-0.0414527250,0.0955051642,0.0291867723,0.2730901698,0.1846510365,9.4933110520
1520511144413580322,-0.0326856812,0.0768701984,0.0252405169,0.2718876021,0.2230236237,9.5548789678
1520511144418597322,-0.0269365598,0.0547294241,0.0242491901,0.2803055761,0.2050358617,9.5803817394
1520511144423612322,-0.0186796840,0.0293873183,0.0221465586,0.2947363886,0.2074330187,9.5814010840
1520511144428628322,-0.0149394596,0.0075334987,0.0225139181,0.3019517949,0.2506015119,9.6242880838
1520511144433645322,-0.0096831310,-0.0096641336,0.0253489598,0.3296108523,0.2386079535,9.6925970542
1520511144438661322,-0.0061942525,-0.0326886887,0.0276017150,0.3235980137,0.2565955282,9.6566115768
1520511144443677322,-0.0059776297,-0.0609652727,0.0319848892,0.4173982953,0.2637830652,9.6707994378
1520511144448693322,-0.0034849335,-0.0796296518,0.0380605001,0.4522727590,0.2326026981,9.7297597356
1520511144453707322,-0.0025139321,-0.1082002388,0.0435222347,0.5689218272,0.2277970514,9.7216561588
1520511144458724322,-0.0010363813,-0.1367837405,0.0538528619,0.6687349473,0.2493738052,9.7752843568
1520511144463741322,0.0009426656,-0.1668268817,0.0652536239,0.7565223904,0.2481678276,9.7988360801
1520511144468756322,-0.0031083186,-0.1971688694,0.0785571853,0.8467149689,0.2865332967,9.7990829260
1520511144473772322,-0.0141959327,-0.2272200440,0.0910644005,0.8779817294,0.3057171083,9.8510563630
1520511144478788322,-0.0169853145,-0.2520172206,0.1014318621,0.9200715993,0.3284974982,9.8796780674
1520511144483804322,-0.0222775228,-0.2698243385,0.1126689827,0.9537434953,0.3009146460,9.9084308195
1520511144488821322,-0.0328489824,-0.2876269680,0.1214809915,0.9910230944,0.3188988489,9.9243204380
1520511144493837322,-0.0414001955,-0.2978513553,0.1298059749,0.9958333653,0.2769285595,9.9847460303
1520511144498854322,-0.0522119414,-0.3025191982,0.1303315664,0.9862128236,0.3105052406,9.9882933611
1520511144503868322,-0.0642733208,-0.3031125206,0.1325138901,0.9994410684,0.3416818613,10.0485656883
1520511144508884322,-0.0775834907,-0.2964144377,0.1320486656,1.0246949904,0.3872472306,10.0819776219
1520511144513901322,-0.0881310828,-0.2885388073,0.1275290111,1.0451386415,0.4160250085,10.1189391783
1520511144518916322,-0.0976650310,-0.2739587536,0.1222469829,1.0788105375,0.4603905817,10.1476217700
1520511144523933322,-0.1079525229,-0.2587947694,0.1164297093,1.1377363554,0.4567885711,10.1981860643
1520511144528949322,-0.1159705355,-0.2369236844,0.1090360907,1.1678005482,0.4783707572,10.2722496028
1520511144533964322,-0.1219700696,-0.2118589652,0.1062624726,1.1593825742,0.4987568000,10.3408781528
1520511144538981322,-0.1312455486,-0.1923267330,0.1015588619,1.1846364962,0.5143436587,10.3998864868
1520511144543997322,-0.1367558105,-0.1751204580,0.0954777363,1.2134981213,0.5874889767,10.4704250170
1520511144549013322,-0.1465404852,-0.1599570053,0.0899300751,1.2339417724,0.5946822270,10.5504069478
1520511144554028322,-0.1560729829,-0.1447963678,0.0854641308,1.2207135276,0.6678308231,10.5841665484
1520511144559045322,-0.1701331367,-0.1363553722,0.0869074662,1.3373625957,0.7445667252,10.5411191379
1520511144564062322,-0.1829368866,-0.1287916800,0.0896945283,1.3974909814,0.8249044505,10.4997805010
1520511144569076322,-0.1977482632,-0.1221160408,0.0973484810,1.4828732890,0.9016427878,10.4698210054
1520511144574093322,-0.2125488274,-0.1113785006,0.1115266584,1.5706607321,0.9723852356,10.3910339003
1520511144579109322,-0.2268427519,-0.0997760795,0.1292276683,1.5995223572,1.0551236770,10.3360515287
1520511144584125322,-0.2340922607,-0.0832217353,0.1485766778,1.5670530289,1.0767107334,10.3014821985
1520511144589141322,-0.2370724100,-0.0660712933,0.1635934647,1.5261657267,1.1162855518,10.3099765899
1520511144594158322,-0.2370314300,-0.0448402866,0.1786357742,1.5021143724,1.1294779697,10.3160085481
1520511144599174322,-0.2307103040,-0.0227210099,0.1893443506,1.4528090962,1.1258843884,10.3629777216
1520511144604189322,-0.2155965770,-0.0020522962,0.1989432926,1.4492013930,1.1198889673,10.3665051153
1520511144609205322,-0.2024963613,0.0174551907,0.2066432548,1.4275551742,1.1210897936,10.4457404259
1520511144614222322,-0.1833672593,0.0360945292,0.2129726169,1.4395808513,1.1474699463,10.4897591201
1520511144619237322,-0.1642456374,0.0489047202,0.2197986091,1.4359731482,1.1678556145,10.5641515696
1520511144624254322,-0.1471424979,0.0570577986,0.2244283985,1.3277420540,1.1678640439,10.5989071993
1520511144629270322,-0.1333120963,0.0602531464,0.2301086465,1.3217292155,1.1510765463,10.5722527844
1520511144634286322,-0.1162273004,0.0558810608,0.2330195679,1.3060958352,1.1534760447,10.5503218763
1520511144639302322,-0.1066903177,0.0430471290,0.2391265722,1.2700188038,1.1294960460,10.4937513610
1520511144644318322,-0.0974018661,0.0307893119,0.2476734026,1.2447648818,1.0959220810,10.4986784845
1520511144649334322,-0.0954142335,0.0094986330,0.2550826686,1.2603982621,1.0179767359,10.5160344852
1520511144654349322,-0.0906534302,-0.0065518689,0.2646911835,1.2014724442,0.9868036743,10.3934511766
1520511144659366322,-0.0939563593,-0.0374595764,0.2717663430,1.1858390639,0.9100599047,10.4122724833
1520511144664383322,-0.1012731188,-0.0634160506,0.2791573085,1.0992541886,0.8105379931,10.3783479839
1520511144669396322,-0.1100955581,-0.0873312385,0.2857549982,1.1365337877,0.7122055749,10.3222981032
1520511144674413322,-0.1216829001,-0.1115381656,0.2920850529,1.1461543294,0.6414555407,10.2571933923
1520511144679430322,-0.1350175883,-0.1275892004,0.2992922587,1.1016593240,0.5683114403,10.1542669972
1520511144684447322,-0.1478474285,-0.1395497284,0.3024714659,1.1196978397,0.5011581717,10.0402667968
1520511144689462322,-0.1611681640,-0.1430610305,0.3059866218,1.1172927043,0.4495953208,9.9450446843
1520511144694478322,-0.1737218460,-0.1360785521,0.3082276792,1.0752028343,0.4304123521,9.8629608499
1520511144699494322,-0.1852629858,-0.1238514867,0.3107774311,1.1136850011,0.4471973209,9.8242191669
1520511144704509322,-0.1965498356,-0.1095853597,0.3136128238,1.0715951312,0.4747808287,9.6700368031
1520511144709526322,-0.2040676420,-0.0953162990,0.3159001238,1.0090616101,0.4448071885,9.6288375172
1520511144714543322,-0.2080670844,-0.0792902684,0.3154887693,0.9850102558,0.4472073425,9.5814213775
1520511144719557322,-0.2065417750,-0.0641274842,0.3118139269,0.9092484899,0.4927805792,9.4542785262
1520511144724575322,-0.2004918086,-0.0472109785,0.3067912924,0.8214610469,0.5143719440,9.3691132946
1520511144729590322,-0.1906674710,-0.0247479488,0.2985573450,0.7300659007,0.5503532748,9.3850756701
1520511144734607322,-0.1748137218,-0.0037402072,0.2905716267,0.6482912962,0.6043209628,9.4078997288
1520511144739622322,-0.1539423974,0.0117361112,0.2814521517,0.5929731814,0.6894642412,9.4037065625
1520511144744637322,-0.1323243470,0.0222606449,0.2717523924,0.5641115563,0.7829994421,9.4503820336
1520511144749653322,-0.1056780775,0.0339505005,0.2628638285,0.5316422281,0.8417598516,9.4878293790
1520511144754670322,-0.0747641698,0.0430224828,0.2528651391,0.4630958684,0.9113153348,9.5209687763
1520511144759687322,-0.0461170167,0.0462564189,0.2463432851,0.4390445142,0.9676768079,9.5711201085
1520511144764702322,-0.0086725973,0.0521220891,0.2376607363,0.3777135608,1.0480239929,9.5437472657
1520511144769718322,0.0242407043,0.0539138881,0.2262500065,0.3488519357,1.0648142067,9.6648747876
1520511144774734322,0.0601711326,0.0571652480,0.2143036996,0.2586593572,1.0900031801,9.6854845579
1520511144779750322,0.0933310717,0.0563383268,0.2015197657,0.2766978729,1.0935991965,9.7155212169
1520511144784767322,0.1292585519,0.0572578820,0.1898262200,0.2935338209,1.1151824128,9.7571734803
1520511144789782322,0.1586488282,0.0546738925,0.1797414075,0.2670773312,1.0935999457,9.7760463429
1520511144794799322,0.1865261169,0.0471306763,0.1715154241,0.2646721958,1.0744138863,9.7481970076
1520511144799814322,0.2106369537,0.0398686266,0.1665452154,0.3452442326,1.0804033132,9.8031898319
1520511144804830322,0.2292166680,0.0320274693,0.1594164613,0.3440416648,1.0360352112,9.7462997488
1520511144809846322,0.2387517297,0.0232976876,0.1563560284,0.3356236908,1.0060573562,9.7940588198
1520511144814863322,0.2460282304,0.0186544158,0.1503549144,0.3175851752,0.9640888463,9.8070589060
1520511144819878322,0.2465180789,0.0128429477,0.1443575095,0.2791030083,0.8813511542,9.7784605533
1520511144824895322,0.2419832289,0.0087814597,0.1370300481,0.2634696281,0.7986116826,9.7763691156
1520511144829910322,0.2346854090,0.0047145182,0.1313309961,0.2430259770,0.7194700068,9.7173759362
1520511144834927322,0.2168321170,0.0009391966,0.1240304941,0.2754953052,0.6954846695,9.6740839602
1520511144839943322,0.1964666247,-0.0037178190,0.1191629032,0.2538490864,0.6523173002,9.6534181563
1520511144844959322,0.1735855488,-0.0101233978,0.1140160952,0.2394182738,0.6307338965,9.6012831871
1520511144849974322,0.1486914007,-0.0176916603,0.1075113990,0.2261900290,0.5947607140,9.5166105142
1520511144854991322,0.1195281206,-0.0229297918,0.1007618760,0.2249874613,0.5851676843,9.4620108082
1520511144860007322,0.0923766818,-0.0275865520,0.0948247030,0.2658747635,0.5875627807,9.3860711405
1520511144865023322,0.0659779947,-0.0334100118,0.0894183294,0.3127749043,0.5635763195,9.2868557940
1520511144870038322,0.0395886342,-0.0325323558,0.0843336325,0.3692955868,0.5323942665,9.2642553241
1520511144875054322,0.0167181591,-0.0319483482,0.0805929080,0.4210059985,0.5024117285,9.2382140731
1520511144880071322,-0.0028887283,-0.0328156127,0.0752117252,0.4186008630,0.5108058988,9.2219592825
1520511144885087322,-0.0202298333,-0.0301831914,0.0690413813,0.4366393787,0.5156010556,9.2322383249
1520511144890103322,-0.0335541559,-0.0287067203,0.0598786726,0.4763241133,0.4988099989,9.1958419662
1520511144895119322,-0.0461264324,-0.0295654006,0.0523200544,0.5460730406,0.4820166007,9.1823958602
1520511144900135322,-0.0529147429,-0.0269230168,0.0439657409,0.6218348065,0.5167857724,9.1688409473
1520511144905151322,-0.0534223861,-0.0254429813,0.0353203211,0.6266450774,0.5287768020,9.2059710402
1520511144910167322,-0.0549348287,-0.0236719550,0.0266789913,0.6001885877,0.5563590922,9.2247959599
1520511144915184322,-0.0516825709,-0.0256710315,0.0120478840,0.6134168325,0.5539597811,9.2025888078
1520511144920198322,-0.0486744925,-0.0253522420,0.0023048541,0.6290502128,0.5863353550,9.1780000469
1520511144925216322,-0.0431527240,-0.0253274946,-0.0060923366,0.6446835931,0.5959272608,9.1778385264
1520511144930231322,-0.0336143496,-0.0267508103,-0.0172135692,0.6795580568,0.6115133702,9.2390775080
1520511144935248322,-0.0240727721,-0.0290628481,-0.0229305532,0.6699375151,0.5719424855,9.1764539631
1520511144940264322,-0.0120198726,-0.0304902782,-0.0321626318,0.6843683276,0.5671447999,9.1983989149
1520511144945280322,0.0030473388,-0.0322049977,-0.0424847178,0.6699375151,0.5707433450,9.2008601555
1520511144950295322,0.0173573527,-0.0368360431,-0.0520159967,0.6783554890,0.5251753533,9.1787419198
1520511144955311322,0.0289061570,-0.0400148910,-0.0601782968,0.6783554890,0.5203787916,9.2229080675
1520511144960328322,0.0429668048,-0.0443597493,-0.0678130647,0.6927863016,0.5179793869,9.2727421355
1520511144965344322,0.0552688901,-0.0478289580,-0.0762495339,0.8010173958,0.5035812724,9.2682162806
1520511144970359322,0.0678240266,-0.0527673741,-0.0800983051,0.8214610469,0.5203676461,9.2947302349
1520511144975376322,0.0776134255,-0.0582874570,-0.0847580261,0.8262713177,0.5191681310,9.3004953037
1520511144980391322,0.0851402998,-0.0640983537,-0.0899568615,0.8743740263,0.4735970486,9.3116929759
1520511144985408322,0.0939207201,-0.0722405628,-0.0949052694,0.9068433545,0.4879842048,9.3508758018
1520511144990423322,0.1006981829,-0.0757250492,-0.0984616446,0.9164638962,0.4999748598,9.3833104986
1520511144995440322,0.1026992038,-0.0821325359,-0.0993259239,0.9140587608,0.4903819237,9.4588826205
1520511145000461322,0.1039438309,-0.0864831439,-0.1066663430,0.8972228128,0.4987772179,9.5217940794
1520511145005472322,0.1026693617,-0.0925706603,-0.1186147136,0.9020330837,0.5119673879,9.5961116095
1520511145010488322,0.0976351719,-0.0934234732,-0.1272695171,0.8924125419,0.5407475074,9.6868244143
1520511145015504322,0.0898374869,-0.0936946000,-0.1359147404,0.8996279482,0.5287555412,9.7623052344
1520511145020519322,0.0775125927,-0.0977598685,-0.1429571874,0.9429203859,0.5431418545,9.8223013059
1520511145025535322,0.0614115318,-0.1056095137,-0.1519153550,0.9621614693,0.4927764582,9.8605138877
1520511145030553322,0.0410364031,-0.1178447122,-0.1560291085,0.9789974173,0.4963725682,9.9010215473
1520511145035568322,0.0138769509,-0.1306704372,-0.1582408853,1.0126693132,0.4915733840,9.9773999841
1520511145040584322,-0.0145465540,-0.1458131620,-0.1658790311,0.9320972765,0.4867830975,10.0479175375
1520511145045600322,-0.0432210519,-0.1615423965,-0.1721684268,0.9056407868,0.4640014900,10.0528458420
1520511145050615322,-0.0761676300,-0.1772733048,-0.1784498883,0.9212741671,0.4556062895,10.0468911418
1520511145055633322,-0.1068569643,-0.1970863524,-0.1834139440,0.9044382191,0.4711964262,10.1028227210
1520511145060648322,-0.1408088239,-0.2122319717,-0.1907712759,0.8948176774,0.4783920180,10.1261522245
1520511145065663322,-0.1724997820,-0.2264959954,-0.2005610522,0.8827920002,0.5071723248,10.0704583011
1520511145070680322,-0.2014188434,-0.2358083129,-0.2092359865,0.8803868648,0.5683286737,9.9902341421
1520511145075696322,-0.2270650336,-0.2395779454,-0.2197685707,0.8996279482,0.5731237368,9.9853936080
1520511145080713322,-0.2509410020,-0.2354809633,-0.2297033070,0.9453255213,0.5623279139,9.9640407488
1520511145085728322,-0.2720559372,-0.2331282917,-0.2407386993,0.9465280890,0.6126917181,9.9779256589
1520511145090744322,-0.2851273300,-0.2293155469,-0.2517779113,0.9765922819,0.6210833595,9.9706519834
1520511145095760322,-0.2966864410,-0.2217120271,-0.2636026612,1.0222898549,0.6330712047,9.9527633385
1520511145100775322,-0.3042214305,-0.2129472215,-0.2732616192,0.9922256621,0.6138872994,9.9147239239
1520511145105792322,-0.3064779606,-0.2047696732,-0.2804999115,1.0307078289,0.6162825831,9.9596706376
1520511145110808322,-0.3054652381,-0.1977694948,-0.2828833374,1.0331129644,0.6354686426,9.9828713972
1520511145115824322,-0.3001839129,-0.1939757862,-0.2842169680,1.0379232352,0.6354682680,9.9363388188
1520511145120839322,-0.2883649526,-0.1896069468,-0.2817706446,1.0475437769,0.6426623612,10.0024803677
1520511145125856322,-0.2750349886,-0.1831992818,-0.2787704682,1.0246949904,0.6654478088,9.9968698265
1520511145130873322,-0.2564246755,-0.1767997473,-0.2719924505,1.0246949904,0.6666469492,9.9771122100
1520511145135889322,-0.2378188553,-0.1756538754,-0.2620078975,0.9477306567,0.6594581009,10.0580562825
1520511145140904322,-0.2154403888,-0.1736389290,-0.2495887631,0.9296921410,0.6318792761,10.0617451850
1520511145145921322,-0.1930605580,-0.1704577160,-0.2374312822,0.8563355106,0.6654609212,10.0996150584
1520511145150935322,-0.1669116839,-0.1672735694,-0.2258218940,0.7180402236,0.6378914624,10.1184201941
1520511145155952322,-0.1377519715,-0.1661213771,-0.2166685811,0.6410758899,0.6139146481,10.1645163187
1520511145160968322,-0.1098466793,-0.1611714802,-0.2112716770,0.5617064209,0.5911371616,10.1641489259
1520511145165985322,-0.0806909146,-0.1585426976,-0.2094119878,0.5063883061,0.5767517849,10.2158357245
1520511145171000322,-0.0512838081,-0.1562066580,-0.2070138967,0.4342342433,0.5623677194,10.2153899160
1520511145176016322,-0.0251434138,-0.1550432638,-0.2024542634,0.4342342433,0.5084064004,10.2224154000
1520511145181032322,-0.0017649740,-0.1518398041,-0.1984150262,0.4270188370,0.4772293113,10.2004352981
1520511145186048322,0.0190856976,-0.1585400323,-0.1960699822,0.4173982953,0.4352601458,10.1715162665
1520511145191065322,0.0356647674,-0.1669997110,-0.1902132457,0.3512570711,0.3837022589,10.1989396372
1520511145196081322,0.0487227955,-0.1769147770,-0.1854432741,0.2502413832,0.3429393519,10.1197746866
1520511145201096322,0.0605244628,-0.1862453810,-0.1814781603,0.2875209823,0.3309450442,10.0520191739
1520511145206113322,0.0703187308,-0.1935378093,-0.1772232053,0.2502413832,0.3141599818,10.0535605453
1520511145211128322,0.0783543970,-0.1981982680,-0.1767326181,0.2249874613,0.2865817189,10.0282660793
1520511145216145322,0.0828735928,-0.2025730912,-0.1746099982,0.1841001590,0.3045720097,9.9821607530
1520511145221160322,0.0846347036,-0.2028717992,-0.1716394835,0.1456179922,0.2614059515,10.0034960022
1520511145226176322,0.0873927064,-0.2048987530,-0.1759889134,0.0830844711,0.2937876133,10.0366131237
1520511145231192322,0.0899071531,-0.2013902277,-0.1800250920,0.0109304084,0.3237717435,10.0268268980
1520511145236210322,0.0899047852,-0.2002115778,-0.1848860258,0.0037150021,0.3165774629,10.1489292596
1520511145241225322,0.0886509765,-0.1975866956,-0.1859458680,-0.0263491907,0.3405626129,10.1747656662
1520511145246241322,0.0879015258,-0.1935039654,-0.1872660741,-0.0876801441,0.3753424618,10.1857880088
1520511145251255322,0.0851392224,-0.1905846473,-0.1896736224,-0.1081237952,0.3861363178,10.2254893652
1520511145256274322,0.0816241634,-0.1879621081,-0.1901881723,-0.1706573163,0.3885394690,10.2086635301
1520511145261289322,0.0796163249,-0.1859224756,-0.1904394228,-0.1862906966,0.4329088822,10.1680973919
1520511145266305322,0.0761014384,-0.1844713019,-0.1887984979,-0.2151523217,0.4461016747,10.2078783450
1520511145271320322,0.0738444455,-0.1850731679,-0.1820350961,-0.2163548894,0.4616905939,10.1613890904
1520511145276338322,0.0720818645,-0.1926724361,-0.1737027065,-0.2367985405,0.5024629605,10.2080340770
1520511145281354322,0.0688103928,-0.2002686530,-0.1667202460,-0.2331908374,0.4856747136,10.1859345975
1520511145286370322,0.0693111596,-0.2116776153,-0.1500340343,-0.2476216499,0.5168534885,10.1593153444
1520511145291385322,0.0690489658,-0.2300815586,-0.1328586846,-0.2283805665,0.5396356580,10.1056472241
1520511145296401322,0.0708014752,-0.2449866430,-0.1162014834,-0.2500267854,0.5564253098,10.1511651586
1520511145301416322,0.0755637643,-0.2636763596,-0.1003904208,-0.2776858428,0.5912025363,10.1037525620
1520511145306433322,0.0823384239,-0.2809083658,-0.0845719765,-0.2319882697,0.6067878027,10.1358325991
1520511145311449322,0.0850904989,-0.2993067570,-0.0690255029,-0.2199625925,0.6031894449,10.1485026401
1520511145316465322,0.0953821973,-0.3177043798,-0.0526813932,-0.2103420508,0.6199766615,10.1088797344
1520511145321481322,0.1056821679,-0.3296900862,-0.0368294675,-0.1826829934,0.6343641924,10.0818671751
1520511145326497322,0.1159787982,-0.3428355033,-0.0231508013,-0.1826829934,0.6259702094,10.0841996484
1520511145331514322,0.1295508912,-0.3501541351,-0.0086221031,-0.1898983997,0.6451570182,10.1109804803
1520511145336530322,0.1418671134,-0.3542556461,0.0013341024,-0.1574290715,0.6259682426,10.0456030917
1520511145341546322,0.1531835505,-0.3548631219,0.0121304895,-0.1321751495,0.6175722928,10.0302575995
1520511145346562322,0.1624943093,-0.3502184511,0.0199946211,-0.1562265037,0.5851973745,9.9410381883
1520511145351577322,0.1685390183,-0.3452851326,0.0284081349,-0.1009083890,0.5228377641,9.8324811736
1520511145356594322,0.1755981631,-0.3330646218,0.0360637214,-0.0828698733,0.4508879338,9.7649714088
1520511145361610322,0.1786453240,-0.3150209094,0.0448534206,-0.0407800033,0.4089147409,9.6774418621
1520511145366626322,0.1801881263,-0.2934768029,0.0520493219,-0.0876801441,0.3525587938,9.6349539920
1520511145371641322,0.1812386690,-0.2646497369,0.0598428255,-0.1009083890,0.3201830326,9.5398185155
1520511145376657322,0.1802701570,-0.2410632811,0.0657062262,-0.1129340661,0.2722183523,9.5074423089
1520511145381674322,0.1717604807,-0.2189359731,0.0713019672,-0.1429982589,0.1966748471,9.4636471334
1520511145386690322,0.1647552063,-0.2006019007,0.0790303749,-0.0997058212,0.1499049988,9.3517055360
1520511145391706322,0.1542304780,-0.1810941990,0.0832571124,-0.1526188006,0.1319220135,9.2952930448
1520511145396721322,0.1439708642,-0.1510950989,0.0870223225,-0.2392036759,0.1163399315,9.2915024345
1520511145401737322,0.1327037733,-0.1205034257,0.0870062031,-0.2836986813,0.1079494140,9.1885128950
1520511145406754322,0.1171695774,-0.0849540617,0.0848714433,-0.3281936867,0.1091520198,9.1854583809
1520511145411770322,0.1053970858,-0.0517190001,0.0770304341,-0.3823092338,0.1691132557,9.1394408833
1520511145416786322,0.0888572203,-0.0129487746,0.0689699854,-0.4496530257,0.2170841176,9.0982124106
1520511145421801322,0.0685435716,0.0267123383,0.0541595594,-0.5001608697,0.2458674214,9.0742709358
1520511145426819322,0.0487373113,0.0681139426,0.0423375434,-0.4761095154,0.2686492163,9.0751767611
1520511145431834322,0.0249006412,0.1048627456,0.0264292371,-0.4881351925,0.2758449954,9.0938810989
1520511145436850322,-0.0014597042,0.1352066604,0.0080417771,-0.4484504580,0.2470625345,9.1481436621
1520511145441867322,-0.0315955617,0.1603005347,-0.0090259681,-0.4075631558,0.2230765416,9.1373097813
1520511145446882322,-0.0614869418,0.1795631747,-0.0247859123,-0.3967400463,0.1918980476,9.1105055277
1520511145451898322,-0.0908815344,0.1935767195,-0.0389635300,-0.3269911190,0.1775029303,9.1051920907
1520511145456915322,-0.1202798239,0.2043828493,-0.0523539641,-0.2464190822,0.1475181445,9.0846806382
1520511145461930322,-0.1489272631,0.2090527170,-0.0592993815,-0.1826829934,0.1031449848,9.0445906413
1520511145466946322,-0.1710460411,0.2081808258,-0.0633231676,-0.1201494724,0.1115340975,9.1020809907
1520511145471961322,-0.1964280618,0.2064174756,-0.0613955458,-0.0564133836,0.1055334314,9.1433036517
1520511145476978322,-0.2182948039,0.2020308578,-0.0586828282,-0.1009083890,0.0935454926,9.1983691981
1520511145481994322,-0.2341299311,0.1991086245,-0.0578640178,-0.1478085298,0.0359904050,9.2523404455
1520511145487011322,-0.2449446253,0.1921089770,-0.0570856650,-0.2103420508,0.0767660497,9.3540158749
1520511145492027322,-0.2545015040,0.1865689296,-0.0571101682,-0.3197757127,0.0635840281,9.3876339285
1520511145497042322,-0.2600352650,0.1845350847,-0.0600914667,-0.3787015306,0.0815757238,9.5811058325
1520511145502058322,-0.2645699464,0.1778387527,-0.0628396556,-0.4364247809,0.1235501343,9.8035962436
1520511145507074322,-0.2668397198,0.1761084986,-0.0698829869,-0.4700966768,0.1235527568,9.8248425764
1520511145512090322,-0.2645811391,0.1793393812,-0.0790612939,-0.4556658643,0.1487335817,9.9060276364
1520511145517106322,-0.2623243658,0.1799419755,-0.0860952416,-0.4628812706,0.2194834287,9.8781374208
1520511145522121322,-0.2610654489,0.1828614121,-0.0879691656,-0.4304119423,0.3298018188,9.9532531621
1520511145527138322,-0.2557927407,0.1825859353,-0.0931215619,-0.4195888329,0.4137408055,10.0274431759
1520511145532155322,-0.2444847796,0.1814211856,-0.0917987273,-0.3654732858,0.5492394587,10.1104586777
1520511145537171322,-0.2367021803,0.1723760203,-0.0862006476,-0.3931323432,0.6631599531,10.1512918452
1520511145542187322,-0.2269124914,0.1604156121,-0.0798168948,-0.3714861244,0.7123230245,10.2300590002
1520511145547202322,-0.2153608998,0.1487392649,-0.0704581811,-0.3534476087,0.8154476961,10.2913764907
1520511145552218322,-0.2023042869,0.1350238167,-0.0611178293,-0.3546501764,0.8790022322,10.2552997582
1520511145557235322,-0.1907581564,0.1172189248,-0.0482887038,-0.2548370562,0.8897867222,10.2868577452
1520511145562251322,-0.1709076425,0.1061111133,-0.0324478443,-0.2716730042,0.8622078037,10.2661299196
1520511145567267322,-0.1588615215,0.0821684040,-0.0126321438,-0.2367985405,0.8598068067,10.2413877886
1520511145572282322,-0.1397523274,0.0780433278,0.0070511125,-0.3714861244,0.9329648624,10.1833580836
1520511145577300322,-0.1259523326,0.0567529057,0.0160617179,-0.4243991037,0.9185792984,10.1501849634
1520511145582314322,-0.1096237737,0.0474124191,0.0243471650,-0.4087657235,0.8502270767,10.2105309357
1520511145587330322,-0.0907770789,0.0418609158,0.0326568449,-0.4015503172,0.7471004383,10.1931291092
1520511145592347322,-0.0782124159,0.0363054944,0.0415192847,-0.3811066661,0.6643581569,10.2790094603
1520511145597363322,-0.0636343239,0.0339604609,0.0487791692,-0.3342065253,0.6487656786,10.2808924524
1520511145602378322,-0.0518281716,0.0269565626,0.0543853430,-0.2969269262,0.5864074732,10.2678068178
1520511145607394322,-0.0463042745,0.0184859960,0.0626975284,-0.2560396239,0.5540274973,10.2651161301
1520511145612411322,-0.0417864469,0.0114814278,0.0675055994,-0.3330039576,0.5324489639,10.2612377260
1520511145617427322,-0.0367602115,0.0097263486,0.0707294772,-0.3402193638,0.4605011005,10.2369730937
1520511145622442322,-0.0322393338,0.0103218163,0.0666673339,-0.3053449002,0.4305198737,10.1611235235
1520511145627459322,-0.0322371776,0.0120708519,0.0664101265,-0.2247728634,0.4544964070,10.1951802165
1520511145632475322,-0.0302176877,0.0158465266,0.0713051190,-0.2343934051,0.4844756669,10.1208674104
1520511145637492322,-0.0337256273,0.0207870303,0.0756781799,-0.2608498948,0.4616940593,10.0944178282
1520511145642508322,-0.0392458903,0.0254404609,0.0781589302,-0.2608498948,0.4712871827,10.1106784888
1520511145647522322,-0.0450234346,0.0260158664,0.0800679323,-0.1874932643,0.4592900652,10.1030033100
1520511145652539322,-0.0487836453,0.0286179111,0.0871291342,-0.1971138060,0.4700830783,10.0380063650
1520511145657556322,-0.0595880131,0.0245109844,0.0957755488,-0.1730624517,0.4712803455,10.0726354132
1520511145662571322,-0.0681270807,0.0241980416,0.1025528417,-0.1165417692,0.4724750839,10.0883541215
1520511145667588322,-0.0784254596,0.0238851380,0.1090628558,-0.1237571755,0.4532893991,10.0535787427
1520511145672603322,-0.0864601262,0.0247372018,0.1161186535,-0.1297700141,0.4448958845,10.0408618698
1520511145677620322,-0.0949964142,0.0293909077,0.1180639127,-0.1105289307,0.4520892284,10.0511268685
1520511145682635322,-0.0995091923,0.0363787220,0.1194783972,-0.0924904150,0.4532869640,10.0137615168
1520511145687652322,-0.1040173522,0.0462781963,0.1217267503,-0.0359697325,0.4532825619,10.0248328187
1520511145692667322,-0.1105358517,0.0588109986,0.1196701106,-0.0203363522,0.5180349272,10.0385632361
1520511145697684322,-0.1190570109,0.0724881553,0.1252013821,-0.0383748679,0.4868586811,10.0143641917
1520511145702699322,-0.1288314023,0.0908371701,0.1269829141,-0.1093263629,0.3861364115,9.9907479915
1520511145707715322,-0.1403869575,0.0981361936,0.1200257672,-0.1261623109,0.3069944548,10.0270155012
1520511145712732322,-0.1484267009,0.1051517667,0.1106249500,-0.1369854203,0.2182589064,9.9214522780
1520511145717748322,-0.1526969149,0.1133394539,0.0993322031,-0.1393905558,0.1726917576,9.8657372132
1520511145722762322,-0.1562156512,0.1200719706,0.0874858488,-0.0431851387,0.1606928606,9.7439495309
1520511145727779322,-0.1552121494,0.1271027430,0.0737394952,0.0049175698,0.0863424079,9.6575551750
1520511145732796322,-0.1509421079,0.1364775265,0.0556761246,0.1083383931,0.0119876469,9.5299473482
1520511145737812322,-0.1388736168,0.1528529614,0.0360283643,0.6735452182,0.1894164094,9.4347878250
1520511145742828322,-0.1305354746,0.1895859579,0.0306116074,0.4787292487,0.4136708415,9.4713296963
1520511145747844322,-0.1226922735,0.2324400179,0.0244308310,-0.0143235136,0.3681419060,9.2495551333
1520511145752859322,-0.1173873003,0.2619127149,0.0094949912,-0.2163548894,0.4197206791,9.4153335987
1520511145757876322,-0.1156337283,0.2666148918,-0.0050821848,-0.1670496132,0.4269116816,9.5810332608
1520511145762893322,-0.1128730362,0.2686767910,-0.0129175882,-0.1826829934,0.3825447035,9.6718759205
1520511145767908322,-0.1116306555,0.2616993517,-0.0186547396,-0.1838855611,0.4281121332,9.7520311235
1520511145772923322,-0.1073607199,0.2643424253,-0.0256768595,-0.3185731450,0.3693647424,9.7104000612
1520511145777940322,-0.1005784114,0.2666958275,-0.0329764155,-0.2560396239,0.4317151741,9.7155413124
1520511145782956322,-0.0925290943,0.2766249912,-0.0399499590,-0.1766701549,0.4508952393,9.6392107122
1520511145787972322,-0.0834683327,0.2918023840,-0.0479675375,-0.1165417692,0.4640811010,9.5839918308
1520511145792988322,-0.0754260918,0.2991207418,-0.0592898232,-0.0179312168,0.4892553698,9.6666818247
1520511145798005322,-0.0658607096,0.3154624127,-0.0667583510,-0.0467928419,0.4520842645,9.6112160858
1520511145803019322,-0.0565560862,0.3245179152,-0.0737408974,0.0506151429,0.5060379971,9.6044046362
1520511145808037322,-0.0469932641,0.3358922089,-0.0761068456,0.0734639294,0.5887769067,9.6424523062
1520511145813052322,-0.0359323285,0.3399817518,-0.0782606254,0.0698562263,0.6391410855,9.6447625970
1520511145818068322,-0.0276293407,0.3501958426,-0.0827974995,0.1023255545,0.7578534586,9.6338715003
1520511145823083322,-0.0198204628,0.3653574460,-0.0851312805,0.0818819034,0.7794395784,9.6410223019
1520511145828102322,-0.0135224555,0.3790651782,-0.0888261062,0.0061201375,0.8178179726,9.6800730521
1520511145833117322,-0.0077292020,0.3910236779,-0.0922627909,-0.0395774356,0.8358086380,9.6897974558
1520511145838133322,-0.0034542051,0.3980404333,-0.1003337481,-0.1285674464,0.7974430753,9.7162682158
1520511145843149322,-0.0039494872,0.4079677063,-0.1078325148,-0.2331908374,0.7962520833,9.7951513700
1520511145848165322,-0.0072202296,0.4103208124,-0.1164661314,-0.3534476087,0.7470966919,9.8416934328
1520511145853180322,-0.0110116938,0.4001478291,-0.1265471367,-0.4400324840,0.7327137504,9.9796832155
1520511145858197322,-0.0190842119,0.3838562822,-0.1374785301,-0.5350353333,0.6655692858,10.0782934901
1520511145863212322,-0.0274242162,0.3567885084,-0.1503855323,-0.5759226356,0.6511827851,10.1728391544
1520511145868228322,-0.0357681801,0.3268068893,-0.1633147653,-0.7166230580,0.4929072075,10.2150380372
1520511145873245322,-0.0391065692,0.2863577925,-0.1839086490,-0.7394718445,0.3801897872,10.1258852667
1520511145878260322,-0.0429578118,0.2365761810,-0.2015967331,-0.6240253441,0.5288742083,10.2466416984
1520511145883277322,-0.0445420568,0.1850216535,-0.2098332498,-0.6733306203,0.5780428058,10.2807758374
1520511145888293322,-0.0463872840,0.1247182073,-0.2154305334,-0.6216202087,0.6619786080,10.3452707277
1520511145893309322,-0.0474783129,0.0623651668,-0.2172571363,-0.5638969584,0.7998752610,10.3166829561
1520511145898324322,-0.0483048115,0.0055295916,-0.2120077739,-0.4845274894,0.9029951559,10.2484055098
1520511145903340322,-0.0476150296,-0.0463576834,-0.2045590523,-0.3835118015,1.0264987521,10.2368425476
1520511145908357322,-0.0491837772,-0.0988417253,-0.1922407502,-0.3630681504,1.0372894237,10.1366886575
1520511145913373322,-0.0507496238,-0.1501645997,-0.1782902804,-0.3149654419,1.0492770815,10.0060486390
1520511145918389322,-0.0490426814,-0.1938956278,-0.1696989957,-0.2788884105,1.0049060760,9.9906328814
1520511145923404322,-0.0455696061,-0.2317953625,-0.1621486999,-0.2367985405,0.9389500746,9.8473438117
1520511145928421322,-0.0418447458,-0.2685258185,-0.1559427080,-0.2656601656,0.9041772502,9.8371993483
1520511145933437322,-0.0388596568,-0.2938882026,-0.1512718910,-0.2596473271,0.8286309352,9.6942707851
1520511145938453322,-0.0328516271,-0.3110782552,-0.1511437085,-0.2728755719,0.7686749443,9.6247293704
1520511145943468322,-0.0275975763,-0.3262194419,-0.1545156609,-0.3354090930,0.6967313892,9.5940303069
1520511145948486322,-0.0225812243,-0.3294052203,-0.1610425508,-0.4111708589,0.6355811282,9.4820993982
1520511145953500322,-0.0147956533,-0.3273377098,-0.1702400181,-0.3570553118,0.6283820710,9.4839039746
1520511145958517322,-0.0054952051,-0.3197318457,-0.1799391389,-0.3257885513,0.6343753379,9.4638373492
1520511145963533322,0.0025464594,-0.3144604638,-0.1885715271,-0.2861038167,0.6235799833,9.4274351438
1520511145968550322,0.0121015858,-0.3074511105,-0.1931351888,-0.2464190822,0.5876026799,9.3805981990
1520511145973564322,0.0269342071,-0.3004404181,-0.1974381058,-0.1778727226,0.6523509241,9.4019486016
1520511145978582322,0.0357363583,-0.2937271153,-0.2003793150,-0.0864775764,0.6943137208,9.3138572939
1520511145983597322,0.0450469485,-0.2864476004,-0.1970944558,-0.0311594616,0.7134956592,9.3121380079
1520511145988613322,0.0561170265,-0.2788760119,-0.1938106407,0.0265637886,0.7734481847,9.3045448345
1520511145993630322,0.0686916867,-0.2733420674,-0.1910862793,0.0530202783,0.7974289326,9.2403460190
1520511145998646322,0.0790017994,-0.2692630179,-0.1894510164,0.0397920335,0.8082222267,9.2253563791
1520511146003660322,0.0868001979,-0.2648964822,-0.1867266795,-0.0564133836,0.7698572259,9.2797888244
1520511146008676322,0.0971071861,-0.2634413503,-0.1845703326,-0.1826829934,0.7219014433,9.3298746750
1520511146013693322,0.1046396901,-0.2657585464,-0.1886603074,-0.2969269262,0.6643516007,9.3717178220
1520511146018709322,0.1099033382,-0.2715652302,-0.1957487636,-0.3281936867,0.6139901381,9.3999627206
1520511146023725322,0.1181787890,-0.2799924648,-0.2031333741,-0.3378142284,0.5636269896,9.3803490261
1520511146028742322,0.1224325452,-0.2851985626,-0.2169791647,-0.3402193638,0.6259824789,9.3559066075
1520511146033757322,0.1251887955,-0.2857562104,-0.2259167594,-0.2836986813,0.6619522896,9.3518349578
1520511146038773322,0.1322288675,-0.2796190815,-0.2315646066,-0.2596473271,0.8142412501,9.3479659188
1520511146043790322,0.1345004208,-0.2691137838,-0.2368996940,-0.1333777172,0.8945738242,9.3350371026
1520511146048805322,0.1377873703,-0.2533733688,-0.2384089902,-0.1586316392,0.9905070250,9.4014315670
1520511146053821322,0.1383063866,-0.2382073363,-0.2434346952,-0.0347671647,1.0972208757,9.3687439882
1520511146058838322,0.1378269704,-0.2227714376,-0.2406104793,0.0878947420,1.2399090327,9.3732216409
1520511146063854322,0.1353410761,-0.2055931183,-0.2358753698,0.1588462370,1.3010596684,9.3283099360
1520511146068868322,0.1356231697,-0.1837428225,-0.2343563756,0.1997335393,1.3214418711,9.2767577513
1520511146073887322,0.1326425970,-0.1607370096,-0.2295758710,0.1528333985,1.3166489622,9.2481653270
1520511146078902322,0.1236242151,-0.1403458224,-0.2285918153,0.1131486640,1.2770804190,9.2811302128
1520511146083917322,0.1153487447,-0.1228448753,-0.2362888593,0.0277663563,1.2219266094,9.3296629635
1520511146088934322,0.1078244423,-0.1076761659,-0.2434639963,-0.0167286490,1.1104100154,9.3453126706
1520511146093950322,0.0995392062,-0.0968748776,-0.2520238090,-0.1021109567,0.9929009038,9.4159869621
1520511146098965322,0.0897325066,-0.0915900901,-0.2681983450,-0.1646444777,0.9065676636,9.5154620536
1520511146103981322,0.0786671097,-0.0892254675,-0.2822284111,-0.2019240768,0.8010462098,9.6426015032
1520511146108998322,0.0663362878,-0.0932710683,-0.2965755973,-0.1550239360,0.7254967104,9.6956772962
1520511146114014322,0.0542520956,-0.1028623463,-0.3074483922,-0.1694547486,0.7302943960,9.7353259740
1520511146119029322,0.0424120318,-0.1174056060,-0.3189005381,-0.1381879881,0.6643392376,9.6607087431
1520511146124046322,0.0320889464,-0.1287590706,-0.3243790207,-0.0419825710,0.6811197107,9.6469723844
1520511146129062322,0.0257927935,-0.1386678775,-0.3247134834,0.0554254137,0.7194846178,9.6157711131
1520511146134078322,0.0195002825,-0.1494668635,-0.3191026057,0.1420102891,0.7542529466,9.5184364900
1520511146139094322,0.0174918599,-0.1524011640,-0.3118163636,0.1504282631,0.7926247845,9.4206970436
1520511146144110322,0.0177586326,-0.1457203459,-0.3039198683,0.2081515133,0.8549755908,9.3886965085
1520511146149126322,0.0187819794,-0.1393408151,-0.2922393538,0.2634696281,0.8777549505,9.3323529487
1520511146154141322,0.0248466119,-0.1221802728,-0.2796742820,0.3632827482,0.8849420193,9.2221328812
1520511146159157322,0.0321700713,-0.1029780898,-0.2676370739,0.4642984361,0.9089169603,9.2153155499
1520511146164173322,0.0379904422,-0.0814505203,-0.2536854595,0.4474624882,0.8801389014,9.1655352948
1520511146169189322,0.0450698555,-0.0593455169,-0.2375673654,0.4222085662,0.8201838471,9.1507316966
1520511146174206322,0.0551627456,-0.0378177305,-0.2230825936,0.3981572119,0.7878089288,9.1916724083
1520511146179222322,0.0642495661,-0.0148239457,-0.2121019360,0.3151800397,0.7146678255,9.2599557362
1520511146184238322,0.0755926698,0.0061397747,-0.2043875913,0.2827107115,0.6343279460,9.2847551415
1520511146189254322,0.0824059730,0.0230252533,-0.1977781524,0.2454311124,0.5527893007,9.3874661813
1520511146194271322,0.0917329310,0.0428364881,-0.1952093383,0.1937207007,0.4448706899,9.4066690425
1520511146199286322,0.0985384522,0.0559427089,-0.1918753503,0.1660616433,0.3417467677,9.4872267548
1520511146204301322,0.1043438785,0.0716658977,-0.1866256663,0.1672642110,0.2458154402,9.5826044012
1520511146209319322,0.1103910221,0.0839085961,-0.1873551357,0.2033412424,0.1630719412,9.6601975788
1520511146214334322,0.1179449395,0.0926428875,-0.1835148023,0.2213797581,0.1031135151,9.7147012358
1520511146219350322,0.1232374810,0.1037168387,-0.1831695804,0.2322028675,0.0683375999,9.7343862483
1520511146224366322,0.1267672337,0.1115826856,-0.1820339076,0.3260031491,0.0419492051,9.6858510773
1520511146229383322,0.1313034089,0.1185667600,-0.1779307661,0.4149931599,0.0647259423,9.7326105878
1520511146234397322,0.1355851998,0.1211704984,-0.1703434076,0.5136037124,0.1726409003,9.7094647975
1520511146239415322,0.1381126465,0.1258066834,-0.1603023073,0.6122142648,0.2433825051,9.6828688248
1520511146244430322,0.1406445272,0.1301354585,-0.1443114204,0.7024068433,0.3009342210,9.7098262722
1520511146249447322,0.1439338210,0.1359163525,-0.1264169970,0.7084196819,0.3536959313,9.7364456070
1520511146254461322,0.1459720308,0.1451911833,-0.1076819252,0.7144325204,0.3776782715,9.7421744147
1520511146259479322,0.1490194818,0.1567945703,-0.0878487521,0.7384838747,0.3560918706,9.7954199835
1520511146264494322,0.1518138776,0.1684036864,-0.0701794794,0.7060145464,0.3572935399,9.8236263056
1520511146269509322,0.1523442082,0.1782636093,-0.0525193447,0.7288633330,0.3524951986,9.8815157846
1520511146274526322,0.1483458869,0.1866757637,-0.0389201129,0.7144325204,0.3453014800,9.9339597393
1520511146279542322,0.1438512093,0.1974085994,-0.0215145203,0.7300659007,0.3213174540,10.0035595976
1520511146284559322,0.1393519134,0.2052297752,-0.0049427964,0.7132299527,0.2829462717,10.0583816531
1520511146289574322,0.1348527939,0.2133430639,0.0113606048,0.6855708953,0.2733553025,10.0482009285
1520511146294591322,0.1303509890,0.2188309781,0.0287261818,0.6278476451,0.2721606577,10.0592232361
1520511146299607322,0.1230816979,0.2266700100,0.0382688464,0.5520858792,0.2385906264,10.0425612369
1520511146304622322,0.1193291869,0.2351004737,0.0451039641,0.4775266810,0.1630505867,10.0631170660
1520511146309640322,0.1133184207,0.2470310362,0.0503466840,0.4041700505,0.0791164703,10.0755343677
1520511146314654322,0.1085577349,0.2578125784,0.0496261682,0.3428390971,0.0335539109,10.0285278583
1520511146319670322,0.1045469468,0.2674368905,0.0459193551,0.3777135608,-0.0120161414,10.0491514378
1520511146324687322,0.1025504188,0.2790980398,0.0435770992,0.4318291079,-0.0863670623,10.0347514818
1520511146329703322,0.1030654285,0.2901795900,0.0404140922,0.3981572119,-0.1463214610,10.0200298190
1520511146334719322,0.1003142983,0.3006719921,0.0391465278,0.4222085662,-0.1739035639,9.9896068698
1520511146339734322,0.0993270506,0.3129053778,0.0408650396,0.4161957276,-0.2566437849,10.0048539509
1520511146344750322,0.1003428938,0.3210659953,0.0403843273,0.3548647743,-0.3273882932,10.0392220745
1520511146349767322,0.1023618231,0.3286486081,0.0382740266,0.3368262586,-0.4005344541,10.0278475405
1520511146354782322,0.1018648669,0.3365325473,0.0321124278,0.3031543626,-0.4772768187,10.0294122637
1520511146359799322,0.0993506594,0.3403406861,0.0243001641,0.3055594980,-0.5552211336,10.0248162848
1520511146364816322,0.0996014016,0.3456112011,0.0148706066,0.2779004406,-0.5732060857,10.0460216324
1520511146369830322,0.0960738208,0.3453483039,0.0037825359,0.2574567895,-0.6283649530,10.0927601661
1520511146374847322,0.0925453187,0.3453811618,-0.0089265871,0.2550516541,-0.6247673444,10.0974286441
1520511146379862322,0.0869998280,0.3410446494,-0.0224769603,0.2622670604,-0.5887936937,10.0961611896
1520511146384880322,0.0784343526,0.3337945672,-0.0365850554,0.2863184146,-0.5552196350,10.0656786041
1520511146389896322,0.0703738898,0.3265366691,-0.0477180791,0.2550516541,-0.4652816681,10.0821652505
1520511146394912322,0.0648192448,0.3143276754,-0.0594346543,0.2189746227,-0.3717459053,10.0696416103
1520511146399927322,0.0567507805,0.3032912481,-0.0741136748,0.2105566487,-0.2518312073,10.0637958920
1520511146404943322,0.0486753260,0.2890583321,-0.0920637000,0.1768847527,-0.1726853169,10.1035593516
1520511146409960322,0.0400986382,0.2759914858,-0.1102744452,0.0854896066,-0.0719504032,10.0927292718
1520511146414974322,0.0345308952,0.2588500797,-0.1298746438,0.0746664971,-0.0191873816,10.1334582048
1520511146419990322,0.0297178485,0.2452186951,-0.1543193917,0.0975152837,0.0347721579,10.1808310906
1520511146425007322,0.0266630977,0.2295417520,-0.1763480552,0.1396051536,0.0479594245,10.2059757179
1520511146430023322,0.0241062832,0.2112461873,-0.1997503894,0.1828975913,0.0635448782,10.2299441575
1520511146435040322,0.0230589710,0.1917747488,-0.2191062279,0.2382157061,0.0527483061,10.2793884390
1520511146440055322,0.0242703530,0.1688017546,-0.2363285767,0.3368262586,-0.0144112378,10.2680348118
1520511146445072322,0.0285039582,0.1484422045,-0.2497488758,0.4222085662,-0.0336041344,10.2927896292
1520511146450087322,0.0314775526,0.1266303386,-0.2650717781,0.5015780352,-0.0851733542,10.3222831199
1520511146455103322,0.0357104051,0.1039316996,-0.2755338571,0.4835395195,-0.1595186555,10.2888290201
1520511146460119322,0.0432130826,0.0806391881,-0.2814071694,0.5063883061,-0.2014903499,10.3351333090
1520511146465136322,0.0487000535,0.0561927342,-0.2918849205,0.5629089886,-0.2410663859,10.3183517442
1520511146470150322,0.0541906232,0.0311489427,-0.2969561999,0.5929731814,-0.2062936551,10.3459166619
1520511146475167322,0.0596872579,0.0081339163,-0.2979537292,0.5965808846,-0.2098913573,10.3737765096
1520511146480184322,0.0656932215,-0.0099273761,-0.2989143996,0.5773398012,-0.1966993141,10.3483837608
1520511146485199322,0.0699360043,-0.0300246789,-0.3015106398,0.5689218272,-0.2014952202,10.3589296691
1520511146490216322,0.0731771516,-0.0489633932,-0.3016612078,0.4679061393,-0.2758340590,10.3681204006
1520511146495232322,0.0769249934,-0.0629396326,-0.3050214675,0.4546778944,-0.3142055223,10.3218008169
1520511146500248322,0.0791640346,-0.0760350247,-0.3110777165,0.4318291079,-0.3225977257,10.2999506632
1520511146505263322,0.0796466225,-0.0876763687,-0.3163079454,0.4655010038,-0.2974183993,10.2670583348
1520511146510279322,0.0808896108,-0.0972901089,-0.3169247326,0.4811343841,-0.3489826551,10.2634700188
1520511146515295322,0.0773591524,-0.1063244077,-0.3169871141,0.4618933007,-0.4113364586,10.2358266504
1520511146520310322,0.0765905622,-0.1168130892,-0.3176068368,0.4763241133,-0.4017444591,10.2077853801
1520511146525328322,0.0755783689,-0.1229369286,-0.3160283794,0.4919574935,-0.4005465362,10.1623084308
1520511146530344322,0.0743294372,-0.1191574348,-0.3130211408,0.4847420873,-0.3789614467,10.0728725286
1520511146535360322,0.0720634784,-0.1229492335,-0.3119636568,0.5376550666,-0.3849612698,10.0386611781
1520511146540376322,0.0670337578,-0.1273292548,-0.3092822097,0.5773398012,-0.4017523265,10.0115619711
1520511146545392322,0.0662783598,-0.1305442496,-0.3057881668,0.6314553482,-0.3561892051,10.0156393845
1520511146550408322,0.0642704233,-0.1323093699,-0.2998457618,0.7108248173,-0.3010349272,9.9485708558
1520511146555424322,0.0554729727,-0.1381601740,-0.2925691490,0.8370944272,-0.2506808637,9.9612384400
1520511146560440322,0.0499484757,-0.1405174545,-0.2836486512,0.8575380783,-0.2123099624,9.9610020352
1520511146565456322,0.0449304026,-0.1405456471,-0.2738996645,0.8178533437,-0.2135060120,9.8265807727
1520511146570471322,0.0361391580,-0.1408557746,-0.2682040884,0.8070302343,-0.1799292372,9.8243290888
1520511146575488322,0.0276022506,-0.1379562033,-0.2641078006,0.8286764532,-0.2123077146,9.7358270294
1520511146580505322,0.0225880077,-0.1341920265,-0.2559531891,0.8322841563,-0.2350916636,9.6684097824
1520511146585521322,0.0148039853,-0.1318742004,-0.2521332935,0.8803868648,-0.2398919717,9.6609733938
1520511146590536322,0.0055194697,-0.1254834092,-0.2461151071,0.9092484899,-0.2171105515,9.6246437924
1520511146595553322,-0.0040184617,-0.1225980719,-0.2368765803,0.9453255213,-0.2518884335,9.6429208548
1520511146600567322,-0.0148050583,-0.1147633320,-0.2262451980,0.9320972765,-0.3226366883,9.5873356916
1520511146605584322,-0.0281080264,-0.1077964460,-0.2183212766,0.9441229536,-0.3154427823,9.5093479801
1520511146610601322,-0.0409101101,-0.1011163770,-0.2120237872,0.9826051204,-0.3502208517,9.5194666247
1520511146615616322,-0.0501852638,-0.0912442685,-0.2002974600,0.9874153913,-0.4041825454,9.4927431138
1520511146620631322,-0.0634781133,-0.0769934977,-0.1920474156,0.9561486307,-0.4245654975,9.4965537559
1520511146625648322,-0.0780227094,-0.0607100834,-0.1813445629,0.9332998442,-0.4497456668,9.4909899883
1520511146630664322,-0.0893095200,-0.0482002763,-0.1755465039,0.8996279482,-0.4197645337,9.4657213294
1520511146635680322,-0.1018445134,-0.0310353649,-0.1672756288,0.8298790209,-0.5276817396,9.3119403173
1520511146640697322,-0.1166359077,-0.0065714294,-0.1646264399,0.7637377967,-0.5540576776,9.2730969264
1520511146645713322,-0.1306742404,0.0176028739,-0.1625219660,0.7901942863,-0.5408691935,9.3204744546
1520511146650727322,-0.1487510003,0.0274919325,-0.1583545886,0.7974096926,-0.4665230492,9.3633310515
1520511146655744322,-0.1668264468,0.0359131421,-0.1501401382,0.8082328020,-0.4101642922,9.4503315436
1520511146660760322,-0.1894226770,0.0460801582,-0.1416334024,0.7072171142,-0.4389357949,9.4257756655
1520511146665776322,-0.2107574850,0.0600363938,-0.1333706459,0.6025937231,-0.4197413997,9.4012081290
1520511146670791322,-0.2358717098,0.0699263379,-0.1305429297,0.5424653375,-0.4257324189,9.3983127967
1520511146675808322,-0.2584754985,0.0777768464,-0.1274648965,0.4799318164,-0.5072690973,9.3908659670
1520511146680824322,-0.2783181599,0.0862243187,-0.1292573771,0.4486650559,-0.4856821345,9.3562849317
1520511146685841322,-0.3029335192,0.0961268430,-0.1310298746,0.3957520765,-0.5324444900,9.3196569519
1520511146690856322,-0.3252843703,0.1092405822,-0.1346759399,0.3007492272,-0.6391605886,9.1777420162
1520511146695872322,-0.3436116174,0.1270297041,-0.1426226378,0.2406208415,-0.7051086289,9.0889064982
1520511146700888322,-0.3584213827,0.1451152310,-0.1519263762,0.1744796173,-0.7854458859,9.0594128792
1520511146705903322,-0.3689620904,0.1658467453,-0.1693344180,0.1925181330,-0.8669888396,9.0674518261
1520511146710920322,-0.3739848287,0.1781273606,-0.1857350136,0.1889104299,-0.8873739458,8.9908053191
1520511146715937322,-0.3762349685,0.1950646555,-0.1996702607,0.1684667787,-0.8897706345,8.9968173635
1520511146720952322,-0.3762261906,0.2099631448,-0.2136252700,0.1901129976,-0.8717852140,9.0082105719
1520511146725969322,-0.3699338051,0.2231041335,-0.2232765515,0.1997335393,-0.8585954186,8.9790504699
1520511146730985322,-0.3596281656,0.2292469129,-0.2305537415,0.2105566487,-0.8418082956,8.9452265790
1520511146736000322,-0.3463098451,0.2327662277,-0.2370449023,0.1816950236,-0.8118275372,8.9013167966
1520511146741017322,-0.3297249535,0.2339462766,-0.2400428186,0.2081515133,-0.8058338956,8.8836212793
1520511146746033322,-0.3156569667,0.2319186543,-0.2425194298,0.2129617841,-0.8214230958,8.9312375626
1520511146751048322,-0.2942934456,0.2330874621,-0.2406563876,0.1684667787,-0.8537964218,8.9038107670
1520511146756065322,-0.2729380711,0.2255023508,-0.2342607578,0.0987178514,-0.8885660618,8.8929021315
1520511146761081322,-0.2480595811,0.2231708236,-0.2305371056,-0.0251466230,-0.9029460999,8.8952839284
1520511146766097322,-0.2244321712,0.2257967117,-0.2283966026,-0.1093263629,-0.9053378245,8.9077270606
1520511146771111322,-0.2013057751,0.2295879411,-0.2262462739,-0.2211651602,-0.8573634972,8.9285253045
1520511146776129322,-0.1771750226,0.2316261580,-0.2222173293,-0.2548370562,-0.8129926791,8.9543769475
1520511146781146322,-0.1520401294,0.2333755696,-0.2190041123,-0.2788884105,-0.7026698869,8.9986649397
1520511146786162322,-0.1274113976,0.2325023234,-0.2158099697,-0.3161680096,-0.6379134006,9.0477746982
1520511146791177322,-0.1030339685,0.2301655004,-0.2101915627,-0.3245859836,-0.5863497068,9.1012649739
1520511146796193322,-0.0784070439,0.2266639661,-0.2048530607,-0.3534476087,-0.5072041910,9.1816566517
1520511146801208322,-0.0562974162,0.2211268545,-0.2014192744,-0.3606630150,-0.4760259780,9.2026150704
1520511146806225322,-0.0331821972,0.2158815213,-0.1979851318,-0.4111708589,-0.4196624444,9.2553482017
1520511146811241322,-0.0133327613,0.2120947446,-0.1956159900,-0.4195888329,-0.4412463164,9.3007747994
1520511146816256322,0.0047587746,0.2106449107,-0.1956607095,-0.4737043800,-0.4352463996,9.3675378857
1520511146821272322,0.0198322194,0.2083241124,-0.1973297729,-0.4737043800,-0.4004713273,9.4174761649
1520511146826290322,0.0326383881,0.2022158861,-0.1995646278,-0.4592735674,-0.3680956598,9.4614656023
1520511146831305322,0.0446858226,0.1931964328,-0.2029024969,-0.4436401871,-0.3728934391,9.5356953270
1520511146836322322,0.0512040634,0.1824206788,-0.2040790694,-0.4063605880,-0.2949522150,9.6642544421
1520511146841338322,0.0567161758,0.1675498506,-0.1996034345,-0.4364247809,-0.2361919927,9.7539748554
1520511146846353322,0.0582047430,0.1535647125,-0.1999834888,-0.4243991037,-0.1522530997,9.8665039146
1520511146851369322,0.0586862175,0.1360730966,-0.1968712566,-0.4075631558,-0.0994922323,9.9999351476
1520511146856385322,0.0606732856,0.1171258772,-0.1940434861,-0.3738912598,-0.0395378336,10.0471968412
1520511146861401322,0.0601376898,0.0923558102,-0.1934198772,-0.3967400463,-0.0023627010,10.0764365866
1520511146866417322,0.0606065836,0.0664176851,-0.1917248440,-0.3702835567,-0.0215510083,10.1610342935
1520511146871432322,0.0605728367,0.0407722046,-0.1905677460,-0.3582578795,-0.0023656981,10.2155192993
1520511146876449322,0.0617900835,0.0107549915,-0.1889052361,-0.3486373378,-0.0179552729,10.2526294668
1520511146881465322,0.0640108987,-0.0201345244,-0.1877923542,-0.3738912598,-0.0323429911,10.2900779116
1520511146886481322,0.0677500646,-0.0437410217,-0.1858150578,-0.4111708589,0.0096298272,10.2811026898
1520511146891498322,0.0712364811,-0.0679282013,-0.1846533785,-0.4520581611,0.0276201180,10.3058881447
1520511146896514322,0.0769820858,-0.0915207992,-0.1875496420,-0.4893377602,0.0252247406,10.2957940446
1520511146901528322,0.0832326679,-0.1119014145,-0.1928572981,-0.4628812706,0.0348158035,10.3234186335
1520511146906545322,0.0927439797,-0.1351873109,-0.2008987114,-0.4171836975,0.0683881762,10.3984804569
1520511146911560322,0.1027655811,-0.1555715484,-0.2043195470,-0.3702835567,0.1355363872,10.5048757205
1520511146916578322,0.1127900404,-0.1745017770,-0.2066470837,-0.2885089522,0.2314612522,10.5679041470
1520511146921592322,0.1230684800,-0.1922700112,-0.2076134652,-0.2091394831,0.2950095131,10.6228525481
1520511146926609322,0.1361220233,-0.2045117829,-0.2044845537,-0.1959112383,0.3969354188,10.7423252259
1520511146931625322,0.1519444326,-0.2120844916,-0.2034895739,-0.1514162329,0.4844692043,10.7848061034
1520511146936641322,0.1639992924,-0.2193723917,-0.2005915489,-0.1081237952,0.5372280112,10.8807912186
1520511146941657322,0.1790828439,-0.2187997408,-0.1946630964,-0.0287543262,0.5707977615,10.9950381948
1520511146946673322,0.1966903767,-0.2124086128,-0.1849072069,0.0193483823,0.5875819810,11.1363351843
1520511146951688322,0.2143001127,-0.2030978121,-0.1772934537,0.0037150021,0.5911806199,11.2213203506
1520511146956705322,0.2299064560,-0.1876643534,-0.1712525573,0.0025124344,0.5504099391,11.2155610934
1520511146961722322,0.2429991445,-0.1751566510,-0.1611710361,-0.0431851387,0.5132401451,11.2172042791
1520511146966738322,0.2530909447,-0.1506982654,-0.1528865890,-0.1297700141,0.4532898674,11.2471591089
1520511146971753322,0.2671966224,-0.1300204759,-0.1468028767,-0.1634419100,0.3849414858,11.2498777908
1520511146976770322,0.2682286490,-0.1125472085,-0.1428837160,-0.1874932643,0.3261854782,11.1746298325
1520511146981785322,0.2657471965,-0.0927493423,-0.1370464151,-0.2933192230,0.2710332608,11.1117957496
1520511146986802322,0.2612515270,-0.0752811546,-0.1320348028,-0.3029397647,0.2182718315,11.0735900905
1520511146991816322,0.2446859905,-0.0633539988,-0.1270430265,-0.2812935459,0.1774993712,11.0734191570
1520511146996834322,0.2296303209,-0.0476280554,-0.1258127929,-0.2295831342,0.1966815906,10.9729527501
1520511147001849322,0.2082915571,-0.0351221865,-0.1199960649,-0.1766701549,0.2254568397,10.8922217306
1520511147006866322,0.1801654825,-0.0237823287,-0.1149872655,-0.1898983997,0.2602329423,10.8911544314
1520511147011882322,0.1533028138,-0.0057328502,-0.1126351276,-0.1874932643,0.3153932144,10.8364564659
1520511147016898322,0.1219145707,0.0123221404,-0.1129800477,-0.1033135244,0.3681488368,10.8018834863
1520511147021913322,0.0870144324,0.0338672680,-0.1113979354,-0.0948955504,0.4197112194,10.7273740563
1520511147026931322,0.0516072154,0.0545489715,-0.1138797473,-0.0816673055,0.4544852615,10.6784013437
1520511147031946322,0.0199764787,0.0813555975,-0.1179451507,-0.0600210867,0.4904577883,10.6874527242
1520511147036962322,-0.0131645521,0.1087553283,-0.1260614960,-0.0239440553,0.5096412252,10.6673264158
1520511147041978322,-0.0405278621,0.1358717665,-0.1363551661,0.0061201375,0.5228294284,10.6356430399
1520511147046993322,-0.0699005474,0.1650329362,-0.1487939081,0.0337791949,0.5252255551,10.5900478707
1520511147052009322,-0.0965139990,0.1927484643,-0.1650365420,0.0578305492,0.5360159457,10.5921275335
1520511147057025322,-0.1201203954,0.2158103057,-0.1840258048,0.0578305492,0.5300202436,10.5363504704
1520511147062042322,-0.1356940228,0.2345139994,-0.2065804458,0.0506151429,0.5144319800,10.5445709098
1520511147067059322,-0.1515200898,0.2535140782,-0.2310262182,0.0746664971,0.4760576133,10.5071856210
1520511147072073322,-0.1655898368,0.2704751545,-0.2554908193,0.1251743411,0.4772528200,10.4137213229
1520511147077090322,-0.1764070398,0.2775333506,-0.2811192563,0.1756821850,0.4424738140,10.3551564237
1520511147082106322,-0.1804400134,0.2828407987,-0.3048798120,0.1756821850,0.4628592012,10.2691378923
1520511147087121322,-0.1864905521,0.2817319006,-0.3267917205,0.2454311124,0.4556589264,10.2347638404
1520511147092139322,-0.1860139663,0.2750863426,-0.3476758189,0.2670773312,0.4676486447,10.1578399550
1520511147097155322,-0.1868024564,0.2611513085,-0.3669898855,0.2297977321,0.5036257609,10.1291141327
1520511147102169322,-0.1840768519,0.2451823317,-0.3879493231,0.2141643518,0.5467960337,10.1024948913
1520511147107186322,-0.1775913152,0.2210509659,-0.4070841867,0.1997335393,0.5899662129,10.0677289371
1520511147112202322,-0.1693535943,0.1916746395,-0.4259917870,0.2249874613,0.6079513524,10.0546820074
1520511147117218322,-0.1578528661,0.1573365863,-0.4414261505,0.2165694873,0.6415279398,10.0175425947
1520511147122233322,-0.1420859109,0.1180437563,-0.4558240572,0.2273925967,0.6343322544,9.9976878180
1520511147127250322,-0.1248193877,0.0735102376,-0.4716175092,0.1865052944,0.6727079323,9.9573733327
1520511147132266322,-0.1045384273,0.0263474269,-0.4844605648,0.1756821850,0.6103534733,9.8901351345
1520511147137281322,-0.0787269599,-0.0205269323,-0.4954178440,0.1889104299,0.5743782303,9.8772578756
1520511147142298322,-0.0521627448,-0.0700314696,-0.5034205262,0.2261900290,0.5743753268,9.8245985409
1520511147147315322,-0.0253386098,-0.1140032445,-0.5100287071,0.2923312532,0.5503873671,9.7612223760
1520511147152330322,0.0040064210,-0.1565367799,-0.5093257006,0.3392313940,0.4964223953,9.7120084530
1520511147157346322,0.0351133113,-0.1984934130,-0.5061866019,0.3356236908,0.4880286933,9.6620795635
1520511147162362322,0.0607028868,-0.2334648108,-0.5008195141,0.3969546442,0.4292660359,9.5546226595
1520511147167378322,0.0890680990,-0.2605699287,-0.4945858993,0.4161957276,0.3681083757,9.4650099304
1520511147172393322,0.1126637261,-0.2879865126,-0.4815819924,0.3969546442,0.3225425382,9.4199180320
1520511147177411322,0.1355250784,-0.3011262784,-0.4681972083,0.3789161285,0.2481972369,9.3132488631
1520511147182427322,0.1548756409,-0.3078525925,-0.4563802575,0.3753084254,0.2374052540,9.2575115925
1520511147187443322,0.1676958643,-0.3125439599,-0.4437239726,0.3945495088,0.1846415768,9.1597556704
1520511147192458322,0.1790133520,-0.3143257150,-0.4296899271,0.3969546442,0.1210869471,9.0923898859
1520511147197474322,0.1868174508,-0.3129050755,-0.4150838017,0.4390445142,0.0647240691,9.0362522581
1520511147202490322,0.1906059119,-0.3091614910,-0.3980175110,0.5160088478,0.0527266706,9.0320283960
1520511147207507322,0.1898726210,-0.3045469819,-0.3803950583,0.5556935823,0.0383338947,8.9561168042
1520511147212525322,0.1861311773,-0.2952751441,-0.3613787060,0.5532884469,-0.0156272370,8.8980856368
1520511147217538322,0.1751044394,-0.2857213328,-0.3399116826,0.5532884469,-0.0216229391,8.8678757407
1520511147222554322,0.1620680596,-0.2752926987,-0.3189753479,0.5677192594,-0.0599965566,8.8329083803
1520511147227571322,0.1455184242,-0.2610767157,-0.2982741249,0.6218348065,-0.0695938947,8.7824188174
1520511147232587322,0.1249492817,-0.2465738371,-0.2764810276,0.6254425097,-0.1127632309,8.7371021842
1520511147237603322,0.1018675037,-0.2314877172,-0.2552199088,0.5797449366,-0.1115605314,8.7712479817
1520511147242619322,0.0775313447,-0.2143602127,-0.2347525324,0.6098091294,-0.1067663112,8.7604913824
1520511147247634322,0.0516934615,-0.1937410551,-0.2126324033,0.5713269626,-0.0959710503,8.7166939499
1520511147252649322,0.0208281159,-0.1704846519,-0.1967054875,0.5316422281,-0.0767817127,8.7042779238
1520511147257666322,-0.0110425975,-0.1460572770,-0.1829321797,0.5015780352,-0.0815759329,8.7464124099
1520511147262683322,-0.0424161234,-0.1251241343,-0.1699981200,0.4594881653,-0.0024293869,8.7572042061
1520511147267699322,-0.0780570210,-0.1004032095,-0.1575683178,0.4246137016,0.0071664527,8.7447507145
1520511147272714322,-0.1104405721,-0.0794544351,-0.1505844009,0.4294239725,0.0239540440,8.7923354257
1520511147277731322,-0.1453405811,-0.0587878317,-0.1473856825,0.4113854568,0.0875098913,8.7901247386
1520511147282747322,-0.1822484717,-0.0357887545,-0.1449770833,0.4173982953,0.1090939506,8.8411794992
1520511147287762322,-0.2118739299,-0.0159891381,-0.1436886565,0.4149931599,0.0947044529,8.8435412293
1520511147292778322,-0.2420028209,0.0035203537,-0.1429426112,0.4053726182,0.0779172362,8.8541105361
1520511147297795322,-0.2678607295,0.0230351614,-0.1435572297,0.4270188370,0.0875086737,8.9015383925
1520511147302810322,-0.2902056842,0.0408125099,-0.1477088175,0.4234111339,0.1258814483,8.9026982328
1520511147307826322,-0.3097854306,0.0582951863,-0.1502444869,0.4402470819,0.1270792774,8.9071817684
1520511147312843322,-0.3248440366,0.0760797607,-0.1560328850,0.4017649151,0.1414719596,8.9563523443
1520511147317859322,-0.3356391404,0.0880405035,-0.1626853168,0.3957520765,0.1258836024,8.9854796698
1520511147322874322,-0.3446744976,0.0985362716,-0.1661055803,0.4642984361,0.1618524765,9.0103445684
1520511147327891322,-0.3476826426,0.1061205575,-0.1695592761,0.4787292487,0.1726436164,9.0427336144
1520511147332907322,-0.3449084094,0.1145768908,-0.1713937618,0.4546778944,0.1690480683,9.0929434136
1520511147337923322,-0.3396231716,0.1201138075,-0.1708202326,0.4053726182,0.1354759765,9.1352932447
1520511147342939322,-0.3298148255,0.1230191092,-0.1662169237,0.3777135608,0.1258850073,9.2552726430
1520511147347955322,-0.3164958581,0.1221458032,-0.1646250540,0.3644853160,0.0983058079,9.3367783702
1520511147352970322,-0.3006570418,0.1253484946,-0.1613834528,0.3260031491,0.1234907539,9.4347484681
1520511147357987322,-0.2833246440,0.1177690922,-0.1576858144,0.3368262586,0.0779225748,9.5439290892
1520511147363003322,-0.2675026816,0.1072708833,-0.1523843311,0.3163826074,0.0515430777,9.6057474302
1520511147368019322,-0.2511741266,0.0964669182,-0.1416750865,0.3043569303,0.0599379973,9.6930170919
1520511147373034322,-0.2328415203,0.0795381097,-0.1285813473,0.3019517949,0.0371545166,9.7860342358
1520511147378051322,-0.2165191401,0.0585101911,-0.1084808043,0.2827107115,0.0155714875,9.8245933153
1520511147383067322,-0.2014506155,0.0389365174,-0.0875551745,0.2334054352,0.0299650127,9.8889771080
1520511147388083322,-0.1846214584,0.0208219125,-0.0671627882,0.2273925967,-0.0299915402,9.9704441771
1520511147393099322,-0.1713120688,0.0015403911,-0.0467727600,0.2057463779,-0.0120027480,10.0833652916
1520511147398115322,-0.1595109112,-0.0177402642,-0.0269210234,0.2598619249,0.0191706883,10.1490503666
1520511147403130322,-0.1499674442,-0.0358642802,-0.0040801890,0.3969546442,0.0203591515,10.2244163218
1520511147408146322,-0.1421747618,-0.0507968674,0.0236581925,0.5172114155,0.0383368919,10.2917947694
1520511147413164322,-0.1338787799,-0.0660242843,0.0527461470,0.6013911554,0.0755036888,10.3583435152
1520511147418179322,-0.1296029638,-0.0809626205,0.0821143380,0.6711400828,0.1066759075,10.4471193036
1520511147423194322,-0.1280816259,-0.0894952222,0.1128893003,0.7096222496,0.1738247741,10.5105971763
1520511147428211322,-0.1288294498,-0.1009309003,0.1393174979,0.7998148280,0.2037962602,10.5631486855
1520511147433226322,-0.1308266797,-0.1053658294,0.1628253784,0.8370944272,0.2397675694,10.5952907793
1520511147438243322,-0.1340678663,-0.1010619002,0.1872139227,0.8791842971,0.2601496785,10.5785912082
1520511147443260322,-0.1403225257,-0.0947172755,0.2108119916,0.9357049796,0.2445564510,10.5920019994
1520511147448275322,-0.1493436638,-0.0869029710,0.2292859379,1.0006436361,0.2313608487,10.5774370616
1520511147453290322,-0.1533318312,-0.0744267302,0.2485977567,1.0727976989,0.1833896122,10.6023486988
1520511147458307322,-0.1623469866,-0.0625344992,0.2676439180,1.0884310792,0.1054442671,10.6522447301
1520511147463324322,-0.1766422716,-0.0506348661,0.2831827838,1.1557748711,0.0191009116,10.6470248636
1520511147468340322,-0.1906826430,-0.0334785581,0.2944324640,1.1365337877,-0.0348589088,10.7123448262
1520511147473355322,-0.2032240150,-0.0206829578,0.3021289010,1.1040644594,-0.0660340310,10.7382584325
1520511147478371322,-0.2200352598,-0.0035058799,0.3052673384,1.1172927043,-0.0468488145,10.7729752861
1520511147483387322,-0.2365958605,0.0151369602,0.3051698737,1.0884310792,-0.0300586008,10.8359956102
1520511147488403322,-0.2521605377,0.0311766726,0.2980163410,0.9862128236,0.1066513686,10.8031550607
1520511147493419322,-0.2694883916,0.0466438532,0.2868034408,0.9982385007,0.2193696318,10.7820095011
1520511147498434322,-0.2840530993,0.0624086004,0.2736938085,0.9393126828,0.3656693528,10.7545489345
1520511147503450322,-0.2933407472,0.0796396220,0.2578800314,0.9513383599,0.5011712841,10.7345433014
1520511147508468322,-0.3043932499,0.0927912996,0.2417678523,1.0283026935,0.5731137152,10.6767789637
1520511147513483322,-0.3079076268,0.1041925246,0.2275221543,1.1064695949,0.6306663676,10.6887455902
1520511147518499322,-0.3066434172,0.1158753499,0.2175985459,1.1762185222,0.6714317098,10.7391612734
1520511147523515322,-0.3043828607,0.1190996766,0.2108551520,1.1377363554,0.6750321282,10.7616130623
1520511147528536322,-0.2976066210,0.1179608350,0.2019056435,1.1088747303,0.6654412526,10.7502818989
1520511147533547322,-0.2825414836,0.1124479187,0.1953423000,1.0703925635,0.7122107262,10.7575837202
1520511147538564322,-0.2642155733,0.1037368799,0.1865840680,0.9741871464,0.7062225169,10.7933902900
1520511147543579322,-0.2388584393,0.0927040776,0.1753600700,0.8984253805,0.7158215409,10.7790104824
1520511147548595322,-0.2077234983,0.0808022998,0.1630364845,0.7841814478,0.7470080896,10.7161741425
1520511147553611322,-0.1768453526,0.0659916774,0.1487973136,0.7144325204,0.6762642369,10.7796778003
1520511147558628322,-0.1356560787,0.0573056236,0.1340446000,0.6302527805,0.7386260951,10.6851405444
1520511147563644322,-0.0972328131,0.0454045157,0.1225191172,0.5689218272,0.7266394675,10.5939398233
1520511147568660322,-0.0532764451,0.0355394382,0.1131632953,0.5653141240,0.6582887444,10.5603394161
1520511147573676322,-0.0072968824,0.0355844075,0.1030676868,0.6013911554,0.5587572794,10.5054645537
1520511147578692322,0.0416989601,0.0324085746,0.0991645793,0.6603169733,0.4436352094,10.4004103066
1520511147583708322,0.0914572651,0.0306681067,0.1033875639,0.7324710361,0.2985335986,10.3045536891
1520511147588724322,0.1427317999,0.0312418235,0.1141186343,0.7805737446,0.1294510525,10.1578202254
1520511147593740322,0.1907471377,0.0332522437,0.1319010809,0.8334867240,-0.0516232725,9.9971059075
1520511147598755322,0.2377620200,0.0343684489,0.1569834643,0.8767791617,-0.2267011460,9.8236957998
1520511147603770322,0.2817631981,0.0331356425,0.1882762193,0.8695637554,-0.3825888391,9.6740014741
1520511147608787322,0.3197336865,0.0316061749,0.2206601362,0.8262713177,-0.5876384798,9.5061119398
1520511147613804322,0.3514209123,0.0294914769,0.2530512750,0.7180402236,-0.7135397948,9.3294801505
1520511147618819322,0.3775851975,0.0323317920,0.2841377446,0.5929731814,-0.8238509731,9.2273742437
1520511147623836322,0.3954524068,0.0354755396,0.3095603754,0.5484781760,-0.8682157034,9.0872311778
1520511147628851322,0.4072888403,0.0389083088,0.3349964307,0.4594881653,-0.8706070534,8.9184266734
1520511147633867322,0.4128412741,0.0452706727,0.3537027375,0.4594881653,-0.8502216662,8.8649481727
1520511147638883322,0.4111090762,0.0533763032,0.3732475554,0.3680930191,-0.8394222842,8.9250965746
1520511147643900322,0.4028470332,0.0676130176,0.3874402751,0.3404339617,-0.7434888962,8.8776243417
1520511147648915322,0.3900525120,0.0780730727,0.3967426695,0.3320159877,-0.6343664620,8.8857348749
1520511147653931322,0.3699717361,0.0908671763,0.4039120164,0.3320159877,-0.5708120196,8.8554571571
1520511147658947322,0.3483776355,0.1039717413,0.4037816475,0.4017649151,-0.4892759031,8.8593473245
1520511147663964322,0.3230078544,0.1144611098,0.4003917210,0.4739189778,-0.4401167653,8.8818399573
1520511147668979322,0.2936078006,0.1223461100,0.3896845151,0.5460730406,-0.4161395764,8.9101678660
1520511147673996322,0.2667112831,0.1258729817,0.3746105613,0.6555067025,-0.3597884996,9.0182892786
1520511147679012322,0.2383061846,0.1302799722,0.3571111641,0.7625352289,-0.3490045715,9.0486148913
1520511147684029322,0.2068799607,0.1320698763,0.3371624467,0.8863997034,-0.3502133589,9.0706533189
1520511147689044322,0.1799722818,0.1324140996,0.3136771163,0.9525409276,-0.3322314039,9.1292613424
1520511147694060322,0.1553151662,0.1263567621,0.2871626726,1.0210872872,-0.3670118148,9.1216552013
1520511147699076322,0.1309090907,0.1220565715,0.2574145499,1.0992541886,-0.4305723451,9.1360642190
1520511147704091322,0.1115186577,0.1119386721,0.2246366262,1.1401414908,-0.4593548997,9.1612614782
1520511147709108322,0.0961470652,0.0986091055,0.1948027858,1.2026750119,-0.5145202295,9.0967886874
1520511147714124322,0.0802673787,0.0823705957,0.1630538268,1.2700188038,-0.5852747594,9.0636621646
1520511147719139322,0.0699161332,0.0655492975,0.1321017914,1.2543854235,-0.6320400184,9.0289956159
1520511147724156322,0.0645909896,0.0463879659,0.1051808253,1.2411571787,-0.7279702220,9.0106236154
1520511147729172322,0.0625329935,0.0269343443,0.0790632063,1.1726108191,-0.7723330790,8.9195246968
1520511147734187322,0.0657548642,0.0077668905,0.0556434682,1.0764054020,-0.7735247267,8.8821115202
1520511147739203322,0.0702312100,-0.0111006738,0.0292476148,1.0246949904,-0.7747198397,8.8698324234
1520511147744220322,0.0815014569,-0.0273606014,0.0093522690,0.9765922819,-0.7591272678,8.8272860980
1520511147749237322,0.0917724871,-0.0410064747,-0.0075451972,0.8707663231,-0.7207465322,8.7527393670
1520511147754251322,0.1007904064,-0.0537859711,-0.0217282015,0.7601300935,-0.6883611240,8.7386767887
1520511147759268322,0.1140828679,-0.0654011694,-0.0348280643,0.6879760307,-0.6319959045,8.7381619892
1520511147764284322,0.1258717586,-0.0743966829,-0.0470934812,0.6482912962,-0.6068108649,8.7222536845
1520511147769299322,0.1379188011,-0.0822440422,-0.0528573711,0.6074039940,-0.5624394848,8.6679876251
1520511147774315322,0.1504770622,-0.0845585408,-0.0572272263,0.5809475043,-0.5228657903,8.6135857823
1520511147779332322,0.1607726615,-0.0892122860,-0.0589052067,0.5544910146,-0.5072749042,8.5917473570
1520511147784348322,0.1675599724,-0.0880462748,-0.0580972782,0.5280345249,-0.4832900353,8.6175486484
1520511147789364322,0.1771155260,-0.0854288140,-0.0548484551,0.5172114155,-0.4641029455,8.6153109966
1520511147794381322,0.1846667108,-0.0804905341,-0.0480610170,0.5484781760,-0.4149406233,8.5324465014
1520511147799396322,0.1866932770,-0.0741040535,-0.0388172824,0.5328447958,-0.4029480015,8.5686134364
1520511147804412322,0.1884720610,-0.0662658478,-0.0276681444,0.5917706137,-0.3885629058,8.5703501444
1520511147809428322,0.1869892371,-0.0555194473,-0.0148674328,0.6759503536,-0.3525952493,8.5590364147
1520511147814445322,0.1832425636,-0.0479864469,0.0006184843,0.7444967133,-0.3549988687,8.6408837859
1520511147819460322,0.1762363051,-0.0363811706,0.0183059592,0.7950045572,-0.3550028025,8.6264464461
1520511147824477322,0.1654515903,-0.0308942609,0.0351421125,0.8094353698,-0.3478090838,8.6588390001
1520511147829493322,0.1541662067,-0.0265847411,0.0562990412,0.8659560523,-0.3466143454,8.7001248755
1520511147834508322,0.1393615770,-0.0254927560,0.0814962385,0.9296921410,-0.3610089945,8.7006806835
1520511147839524322,0.1248068427,-0.0238106190,0.1039919563,0.9296921410,-0.4065763306,8.7634808919
1520511147844544322,0.1079822801,-0.0279563303,0.1261768670,0.9272870056,-0.4389529347,8.7484280028
1520511147849556322,0.0916577199,-0.0338494234,0.1480769599,0.8984253805,-0.4605352145,8.7719728514
1520511147854572322,0.0733181978,-0.0414843269,0.1672619891,0.9332998442,-0.4749276157,8.8123224752
1520511147859589322,0.0559828596,-0.0497008773,0.1861701593,0.9465280890,-0.5156994204,8.8215306287
1520511147864605322,0.0409063098,-0.0590777091,0.2034419613,0.9369075473,-0.5456771817,8.9088142992
1520511147869619322,0.0250748128,-0.0672805570,0.2174775051,0.9369075473,-0.5732574114,8.9344083610
1520511147874637322,0.0089881044,-0.0772267115,0.2296063558,0.9453255213,-0.5984400159,8.9668910125
1520511147879653322,-0.0048383180,-0.0865819265,0.2390299932,0.9693768756,-0.6224246976,9.0294360717
1520511147884668322,-0.0156412392,-0.0915717480,0.2509162893,0.9585537662,-0.6188264334,9.0458079245
1520511147889684322,-0.0269459190,-0.0948083602,0.2609230360,0.9453255213,-0.6008382968,9.1261070729
1520511147894701322,-0.0397597914,-0.0959920313,0.2658077727,0.9609589016,-0.6068352165,9.0876100034
1520511147899717322,-0.0482983258,-0.0939651567,0.2693562996,0.9994410684,-0.5984442306,9.0895515441
1520511147904732322,-0.0530655783,-0.0922354741,0.2756010614,1.0415309384,-0.5876552449,9.2111564582
1520511147909748322,-0.0560717592,-0.0890481797,0.2818536716,0.9946307975,-0.5456816773,9.1953020132
1520511147914764322,-0.0605845844,-0.0832310026,0.2851530851,0.9862128236,-0.5169016516,9.3220295755
1520511147919779322,-0.0613288484,-0.0771165934,0.2868244454,0.9164638962,-0.4893159895,9.3726537640
1520511147924797322,-0.0588031502,-0.0695476239,0.2898535833,0.9056407868,-0.4545400743,9.3889952140
1520511147929813322,-0.0557761676,-0.0605106084,0.2888347147,0.8948176774,-0.4701280569,9.5204380278
1520511147934829322,-0.0565228897,-0.0540953451,0.2869912014,0.8779817294,-0.4401482351,9.5321941046
1520511147939844322,-0.0575228003,-0.0482593072,0.2837909793,0.8936151097,-0.4125692229,9.5715279385
1520511147944861322,-0.0539969601,-0.0421366685,0.2830194923,0.8683611877,-0.4449440475,9.6171289311
1520511147949876322,-0.0472006323,-0.0351466090,0.2852246120,0.9056407868,-0.4317564063,9.6795089851
1520511147954892322,-0.0436731691,-0.0296147520,0.2874246836,0.8815894325,-0.3861871970,9.7366437051
1520511147959908322,-0.0396470717,-0.0284600220,0.2920253886,0.8851971357,-0.4017763035,9.7610288144
1520511147964926322,-0.0358729750,-0.0270103637,0.2952760539,0.8467149689,-0.4197604127,9.7509616207
1520511147969940322,-0.0308413687,-0.0235146939,0.2963755801,0.7925994218,-0.3993708108,9.7526306134
1520511147974957322,-0.0258107699,-0.0191375863,0.2947763165,0.7324710361,-0.4017644087,9.7869203796
1520511147979973322,-0.0222882699,-0.0141746583,0.2918315700,0.6891785985,-0.3825747901,9.8221873708
1520511147984989322,-0.0182574053,-0.0036693998,0.2867637615,0.6434810254,-0.3537918609,9.8249283867
1520511147990005322,-0.0112088887,0.0077082800,0.2827792051,0.6230373742,-0.3417988644,9.8378992628
1520511147995021322,-0.0051645521,0.0211310851,0.2766477101,0.6037962908,-0.3393990850,9.9020021225
1520511148000038322,0.0021393642,0.0389346200,0.2670301310,0.5328447958,-0.2950253634,9.9061358871
1520511148005052322,0.0099537541,0.0628588837,0.2569172116,0.5027806029,-0.3070144262,9.9076023509
1520511148010069322,0.0205314237,0.0876656684,0.2441003684,0.4582855976,-0.2470539396,9.9997863434
1520511148015085322,0.0283420384,0.1118951568,0.2288493000,0.4198034308,-0.1583145511,10.0337765488
1520511148020100322,0.0371639602,0.1393244415,0.2157851858,0.4089803213,-0.1619111294,10.1303433505
1520511148025117322,0.0444711422,0.1632638053,0.1999917360,0.4077777536,-0.0947591721,10.2035046417
1520511148030132322,0.0507641981,0.1807930442,0.1838806993,0.4089803213,-0.0312048233,10.2650245912
1520511148035149322,0.0555478302,0.1959855172,0.1696484995,0.4498676236,0.0947017367,10.2668281266
1520511148040165322,0.0598256969,0.2088467169,0.1553994485,0.4222085662,0.1450677887,10.3205068525
1520511148045181322,0.0640977966,0.2161657833,0.1432725260,0.4835395195,0.2445916672,10.3721093174
1520511148050197322,0.0706258228,0.2194070807,0.1308397339,0.5508833115,0.3573056220,10.3783167801
1520511148055212322,0.0718726061,0.2168055083,0.1232421075,0.6134168325,0.4376431601,10.4392234010
1520511148060229322,0.0763808170,0.2095401497,0.1166850278,0.6218348065,0.4940021043,10.4925451286
1520511148065245322,0.0786253116,0.1996463452,0.1120059622,0.6687349473,0.5947262472,10.5152332860
1520511148070260322,0.0796157308,0.1912075142,0.1078814374,0.7180402236,0.6810605176,10.5646413763
1520511148075278322,0.0848795514,0.1842294649,0.1029484560,0.7396864424,0.7422149933,10.6387482620
1520511148080293322,0.0903907543,0.1740448273,0.0985316458,0.7601300935,0.7985730010,10.6628993401
1520511148085309322,0.0956563783,0.1682315877,0.0938781026,0.6903811662,0.8645311566,10.6646760637
1520511148090325322,0.1004193262,0.1659307909,0.0833001603,0.5953783168,0.9017119088,10.6934559686
1520511148095341322,0.1076960583,0.1656772263,0.0702981992,0.5340473635,0.9292969152,10.7277282063
1520511148100357322,0.1137097922,0.1633958610,0.0526837299,0.4979703321,0.9796636228,10.7710295721
1520511148105373322,0.1217404757,0.1672401859,0.0329478445,0.4029674828,1.0480220261,10.8276705290
1520511148110389322,0.1312812417,0.1734190915,0.0121447598,0.3428390971,1.1187759941,10.8328353666
1520511148115405322,0.1395671366,0.1790067230,-0.0056844326,0.2923312532,1.1187799278,10.8867856009
1520511148120420322,0.1496046039,0.1805222162,-0.0259829283,0.2706850343,1.1151841924,10.8951348076
1520511148125437322,0.1531039853,0.1770735999,-0.0433310767,0.3248005814,1.0456298331,10.9307023643
1520511148130453322,0.1596390486,0.1846820231,-0.0543777931,0.3007492272,1.0540256893,11.0448183876
1520511148135470322,0.1649149402,0.1925915366,-0.0692075952,0.1853027267,1.0612295232,11.1156636942
1520511148140486322,0.1762098230,0.1938117669,-0.0878873722,0.1179589348,1.0420485214,11.1721207966
1520511148145501322,0.1812226310,0.1953209204,-0.1065532581,0.1323897474,1.0432465379,11.2637885390
1520511148150517322,0.1834744018,0.1971109058,-0.1216946903,0.1792898882,1.0360480426,11.3028519522
1520511148155533322,0.1935143233,0.1968620664,-0.1360545148,0.1901129976,1.0444411826,11.3306298762
1520511148160549322,0.1995366665,0.1957229294,-0.1450026230,0.1696693465,0.9784900516,11.4006218131
1520511148165565322,0.2052987801,0.1881739629,-0.1542697183,0.1937207007,0.9137345955,11.4050994321
1520511148170581322,0.2108141661,0.1823659207,-0.1608175495,0.2394182738,0.8573714365,11.4477089252
1520511148175597322,0.2125617829,0.1768434156,-0.1657328813,0.2418234092,0.8058082110,11.4593572363
1520511148180614322,0.2105432966,0.1707228245,-0.1655052864,0.2237848935,0.7818268074,11.4514211912
1520511148185630322,0.2120496312,0.1672158744,-0.1614765753,0.1901129976,0.7506517789,11.4122664412
1520511148190645322,0.2040049401,0.1631253277,-0.1585167585,0.1744796173,0.7182762050,11.4159366109
1520511148195661322,0.1949561554,0.1604942235,-0.1566261430,0.1323897474,0.7254743257,11.3930963928
1520511148200676322,0.1786242367,0.1613576069,-0.1549658613,0.0686536586,0.7518603790,11.3100166706
1520511148205693322,0.1635509252,0.1642633596,-0.1541039894,-0.0119183782,0.7818451648,11.2689344935
1520511148210709322,0.1431969549,0.1663001754,-0.1559444445,-0.0119183782,0.8250142200,11.1794073129
1520511148215725322,0.1190766269,0.1709594320,-0.1582989827,-0.0395774356,0.9113544847,11.1203229951
1520511148220740322,0.0906848773,0.1756148295,-0.1598339490,-0.0275517585,1.0036873607,11.0387658286
1520511148225758322,0.0605266460,0.1753181862,-0.1622150784,0.0602356846,1.0552435617,10.9774295923
1520511148230773322,0.0318797673,0.1761811158,-0.1621552027,0.0963127160,1.0948123859,10.8991762074
1520511148235790322,0.0012203379,0.1738307437,-0.1594105881,0.1444154245,1.1559648011,10.8928376491
1520511148240806322,-0.0291947867,0.1668205029,-0.1575136474,0.2273925967,1.1655514619,10.8304270159
1520511148245822322,-0.0560901909,0.1598065415,-0.1537294195,0.2887235500,1.1931269150,10.7647231018
1520511148250837322,-0.0812267307,0.1498670407,-0.1453714093,0.3704981545,1.2087093716,10.7522905170
1520511148255854322,-0.1033500604,0.1381804141,-0.1370323383,0.3993597796,1.2111054046,10.6264957099
1520511148260869322,-0.1242227922,0.1218306706,-0.1281900785,0.4474624882,1.1499454966,10.5854121056
1520511148265886322,-0.1413354074,0.1005376080,-0.1226391627,0.4294239725,1.0791976166,10.5345223385
1520511148270899322,-0.1561894224,0.0734017156,-0.1111848995,0.3909418056,1.0300358563,10.5093776762
1520511148275916322,-0.1665212935,0.0442228046,-0.0978607775,0.3344211231,0.9293124628,10.3821902034
1520511148280934322,-0.1725911051,0.0115664354,-0.0910643685,0.2791030083,0.8405803798,10.2898436507
1520511148285950322,-0.1781630234,-0.0234157141,-0.0861804988,0.1780873205,0.7878260686,10.2188254012
1520511148290965322,-0.1802199690,-0.0604347200,-0.0818598166,0.1191615025,0.7110856708,10.1660151648
1520511148295982322,-0.1797657728,-0.0983247097,-0.0783621086,0.1191615025,0.6691157560,10.0777331512
1520511148300996322,-0.1757893864,-0.1321288386,-0.0767336328,0.1119460962,0.5971678926,10.0023341848
1520511148306014322,-0.1698006726,-0.1641824158,-0.0756366440,0.1323897474,0.5539972451,9.9417458095
1520511148311029322,-0.1645595277,-0.1945010930,-0.0696550905,0.1973284039,0.5431999237,9.8644227595
1520511148316045322,-0.1600644503,-0.2198701707,-0.0622816148,0.2658747635,0.4916315468,9.7057542751
1520511148321061322,-0.1515368853,-0.2353247718,-0.0570043890,0.3019517949,0.4724424903,9.5857210055
1520511148326077322,-0.1422495706,-0.2458226268,-0.0527729545,0.3885366702,0.3765045129,9.4699195372
1520511148331093322,-0.1362192926,-0.2516712642,-0.0441711489,0.4017649151,0.2709791254,9.4164350615
1520511148336109322,-0.1241444701,-0.2484882605,-0.0341588996,0.4450573527,0.2877637195,9.2939721935
1520511148341125322,-0.1188486825,-0.2385958729,-0.0278705602,0.5136037124,0.2158099555,9.2155115207
1520511148346141322,-0.1077603550,-0.2208403945,-0.0190980192,0.5268319572,0.1402630786,9.1038906139
1520511148351157322,-0.1039533582,-0.1984256189,-0.0102763738,0.5833526397,0.0755050937,9.0476207107
1520511148356174322,-0.0996417839,-0.1745537237,-0.0014445464,0.5881629106,-0.0312187786,8.8594106411
1520511148361190322,-0.0953292452,-0.1512704250,0.0095472019,0.6074039940,-0.0647962090,8.7813924568
1520511148366206322,-0.0937682757,-0.1174932673,0.0187302941,0.5544910146,-0.1271473900,8.7192125114
1520511148371221322,-0.0952283886,-0.0866260374,0.0260029347,0.5412627698,-0.1547265895,8.5961809027
1520511148376239322,-0.0994546352,-0.0566318587,0.0324624024,0.5184139832,-0.1918981631,8.5278730549
1520511148381254322,-0.1039348190,-0.0280925159,0.0380995837,0.5220216864,-0.2518554652,8.4825727925
1520511148386269322,-0.1084168964,-0.0015957784,0.0448033870,0.5220216864,-0.2722408524,8.4523769285
1520511148391286322,-0.1227021764,0.0243201776,0.0493565792,0.4426522173,-0.2674381092,8.3078767906
1520511148396303322,-0.1379983245,0.0470348807,0.0522639089,0.4751215456,-0.2866268848,8.3494166458
1520511148401317322,-0.1537995754,0.0688796038,0.0535422274,0.4570830299,-0.3118074288,8.3379953383
1520511148406335322,-0.1706144231,0.0851905408,0.0536979907,0.4534753267,-0.2746337947,8.2624548469
1520511148411350322,-0.1859235007,0.1003379873,0.0533009694,0.4546778944,-0.2314648331,8.2612389017
1520511148416366322,-0.2042495717,0.1146108272,0.0526323337,0.4029674828,-0.2374565078,8.1931815725
1520511148421381322,-0.2233375447,0.1236413639,0.0508428991,0.3692955868,-0.2146702173,8.1865142329
1520511148426397322,-0.2384062693,0.1341420535,0.0447283779,0.3103697689,-0.1702974323,8.1800716514
1520511148431414322,-0.2549836258,0.1428887461,0.0404971399,0.3151800397,-0.1403192963,8.1974277570
1520511148436430322,-0.2685489993,0.1507704794,0.0332776271,0.2586593572,-0.0743621710,8.1979135810
1520511148441447322,-0.2793483292,0.1586474682,0.0282173474,0.2466336801,-0.0731620940,8.2817038269
1520511148446463322,-0.2881427179,0.1647871356,0.0193523530,0.2550516541,-0.0060108859,8.2955021360
1520511148451477322,-0.2964316079,0.1720881674,0.0121185928,0.2586593572,0.0119759394,8.3093952082
1520511148456494322,-0.3012085163,0.1753133795,0.0040355376,0.2478362478,0.0011845186,8.3594832677
1520511148461510322,-0.3017138739,0.1776639264,-0.0032504835,0.2478362478,0.0131759228,8.4559295226
1520511148466526322,-0.3017129839,0.1820514482,-0.0094396928,0.1961258361,0.0287687757,8.4471204869
1520511148471541322,-0.2961883575,0.1835302045,-0.0167435845,0.1660616433,0.0383642406,8.4636737740
1520511148476558322,-0.2881569057,0.1791764274,-0.0219322379,0.1636565079,0.0203773215,8.5357676494
1520511148481574322,-0.2803824726,0.1704510554,-0.0268832250,0.1047306900,0.0299750343,8.5293589787
1520511148486591322,-0.2705952340,0.1617184584,-0.0288619411,0.1119460962,0.0299744723,8.5862338021
1520511148491607322,-0.2577980390,0.1494933422,-0.0319551184,0.0975152837,0.0047936473,8.6235874254
1520511148496621322,-0.2455004584,0.1363800354,-0.0299136595,0.0866921743,0.0023962094,8.6573972843
1520511148501637322,-0.2291866245,0.1212344396,-0.0300595969,0.0313740595,0.0131927816,8.7253295422
1520511148506655322,-0.2156359369,0.1057912772,-0.0283088022,0.0025124344,-0.0371688683,8.7361188714
1520511148511671322,-0.2025845460,0.0932639485,-0.0273464809,-0.0035004042,-0.0443632426,8.7571030039
1520511148516686322,-0.1847581284,0.0798592378,-0.0245058754,0.0085252729,-0.0623512855,8.7581656373
1520511148521701322,-0.1671819120,0.0664507866,-0.0203120736,0.0037150021,-0.0347706812,8.7907255935
1520511148526718322,-0.1508603039,0.0521574914,-0.0123349649,0.0482100075,-0.0107913381,8.8251334382
1520511148531735322,-0.1350408545,0.0378625425,-0.0038158310,0.0482100075,-0.0083930573,8.8658061380
1520511148536751322,-0.1159514388,0.0264856325,0.0036372828,0.0854896066,0.0035954435,8.9084309141
1520511148541766322,-0.0973583364,0.0171365623,0.0154356260,0.1215666379,0.0419651273,9.0265810269
1520511148546782322,-0.0822813515,0.0086573537,0.0283293561,0.1636565079,0.0539532534,9.0645104070
1520511148551798322,-0.0644410950,-0.0018662911,0.0433667579,0.2093540810,0.0791316432,9.1488775674
1520511148556814322,-0.0453455282,-0.0118001187,0.0559713591,0.2261900290,0.0947191575,9.2114542687
1520511148561831322,-0.0320322534,-0.0231916765,0.0680344878,0.2105566487,0.0971186559,9.3068999000
1520511148566847322,-0.0192150723,-0.0325561228,0.0847133917,0.2322028675,0.0887229871,9.3787503196
1520511148571861322,-0.0099151496,-0.0407542242,0.1005960844,0.2478362478,0.1031114546,9.4692313502
1520511148576879322,0.0006435137,-0.0463250019,0.1148731759,0.1804924559,0.1342943505,9.5639900908
1520511148581894322,0.0099495954,-0.0501530638,0.1310597608,0.1828975913,0.1223027590,9.6743820498
1520511148586911322,0.0112098962,-0.0551410732,0.1440058377,0.1768847527,0.1187058060,9.7023355380
1520511148591926322,0.0154863985,-0.0598372450,0.1572190829,0.1456179922,0.1103142582,9.7619173965
1520511148596942322,0.0152378007,-0.0677491600,0.1736628260,0.1420102891,0.1043188371,9.8537677307
1520511148601958322,0.0102116673,-0.0771169545,0.1890221378,0.1540359662,0.1438895344,9.9477457522
1520511148606973322,0.0066920095,-0.0864797877,0.2027553739,0.1588462370,0.1462874406,10.0313709580
1520511148611991322,0.0031716461,-0.0970110728,0.2175619012,0.2141643518,0.1990453109,10.1167797271
1520511148617007322,-0.0031098368,-0.1052123647,0.2323913472,0.2923312532,0.2350134357,10.1008759469
1520511148622021322,-0.0086422178,-0.1166171341,0.2466538473,0.3500545034,0.2422037826,10.1828193089
1520511148627039322,-0.0136679945,-0.1239372242,0.2590527158,0.4041700505,0.2158184786,10.2218312013
1520511148632054322,-0.0206975207,-0.1271823608,0.2728391708,0.4354368110,0.2409979923,10.2807716553
1520511148637070322,-0.0262166115,-0.1275086907,0.2850217810,0.5087934415,0.2349965769,10.2928470771
1520511148642087322,-0.0292172137,-0.1234618113,0.2966919783,0.5737320980,0.2098095704,10.2596995294
1520511148647103322,-0.0337212964,-0.1159174515,0.3078505613,0.6555067025,0.1534436016,10.2531478248
1520511148652117322,-0.0362046542,-0.1025526262,0.3220258771,0.7601300935,0.0958767129,10.2568341890
1520511148657135322,-0.0409550215,-0.0918053203,0.3340210184,0.8455124011,-0.0036585921,10.2200737225
1520511148662151322,-0.0459489017,-0.0758153767,0.3468682796,0.8924125419,-0.0816063724,10.1801803379
1520511148667167322,-0.0474252099,-0.0586512323,0.3570124402,0.9152613285,-0.1367686114,10.1579309963
1520511148672182322,-0.0534256027,-0.0426573119,0.3682382929,0.9068433545,-0.2183095046,10.1081202568
1520511148677199322,-0.0604358051,-0.0281119668,0.3762083464,0.9020330837,-0.2770670107,10.0942786472
1520511148682214322,-0.0659421271,-0.0153092391,0.3822684398,0.9248818702,-0.3058481604,10.0743278680
1520511148687230322,-0.0747126954,-0.0010530540,0.3891573537,0.8575380783,-0.3094403367,10.0819597229
1520511148692247322,-0.0850067109,0.0047662293,0.3908442264,0.8431072657,-0.2698675788,10.0437108449
1520511148697263322,-0.0917808257,0.0123373834,0.3917262659,0.8190559115,-0.2207009482,10.0531941548
1520511148702278322,-0.0975503175,0.0193254339,0.3928725382,0.8130430729,-0.1559468971,10.0276223687
1520511148707294322,-0.1083508040,0.0216449922,0.3956158509,0.8876022711,-0.1307707551,10.0803307210
1520511148712311322,-0.1128723795,0.0228080297,0.3959036901,0.9357049796,-0.0852071654,10.1030609630
1520511148717326322,-0.1153785542,0.0257114208,0.3994476849,0.9753897141,-0.0456386222,10.1479597221
1520511148722342322,-0.1191452257,0.0259933158,0.4024329137,1.0679874280,-0.0348535702,10.1714529318
1520511148727359322,-0.1178889158,0.0227747380,0.4075464981,1.1088747303,-0.0156705079,10.1896305537
1520511148732375322,-0.1126034664,0.0253839693,0.4132381685,1.2074852827,-0.0036867838,10.2397933796
1520511148737390322,-0.1070728339,0.0233304182,0.4191643487,1.2519802881,0.0226908401,10.2544424385
1520511148742407322,-0.1020481394,0.0201169594,0.4229182029,1.1906493348,0.0850509188,10.2886807654
1520511148747422322,-0.0914955370,0.0139808950,0.4306977467,1.2062827150,0.1402101607,10.2896369540
1520511148752438322,-0.0804419601,0.0084358093,0.4355047984,1.2423597464,0.2193506188,10.3112893611
1520511148757455322,-0.0701476074,-0.0026531622,0.4429764706,1.2616008298,0.2817044223,10.2726905240
1520511148762471322,-0.0550863630,-0.0189829992,0.4495876218,1.3109061061,0.3272679183,10.2663554621
1520511148767487322,-0.0397777323,-0.0370559458,0.4542911465,1.3481857052,0.3404555595,10.2578447349
1520511148772502322,-0.0227150280,-0.0597947263,0.4605791102,1.3938832782,0.3248631749,10.2492801365
1520511148777518322,-0.0026416696,-0.0877845311,0.4695269166,1.4528090962,0.2361221943,10.2162530891
1520511148782535322,0.0242199328,-0.1105136444,0.4736323109,1.4636322056,0.1198047303,10.2139368816
1520511148787551322,0.0528410308,-0.1300237270,0.4728890659,1.4455936899,0.0034895141,10.1863344284
1520511148792566322,0.0789482662,-0.1480684018,0.4686445070,1.4516065285,-0.1500009284,10.1318048127
1520511148797582322,0.1088337894,-0.1573598660,0.4606719972,1.4227449034,-0.3058869356,10.1008598614
1520511148802598322,0.1382186203,-0.1602184861,0.4443624059,1.4083140908,-0.4521809433,10.0825486782
1520511148807615322,0.1696206241,-0.1554886659,0.4237781468,1.5009118047,-0.5852927422,10.0062378285
1520511148812631322,0.1980088532,-0.1466682606,0.3986313313,1.5682555966,-0.7088094507,9.9290012863
1520511148817646322,0.2254003787,-0.1314370610,0.3732647447,1.6788918262,-0.7831647737,9.7943503654
1520511148822662322,0.2482758289,-0.1106705991,0.3476782518,1.7979460298,-0.8251439609,9.7548817412
1520511148827678322,0.2671385465,-0.0849565462,0.3237602944,1.8893411760,-0.8191553769,9.7086626960
1520511148832694322,0.2777137188,-0.0580925875,0.3044659113,2.0396621401,-0.8023791185,9.6118873890
1520511148837710322,0.2842762016,-0.0265738791,0.2873789324,2.1611214791,-0.6884702379,9.5710811966
1520511148842727322,0.2888400745,0.0098808247,0.2765560353,2.2501114899,-0.5673639860,9.5363947445
1520511148847743322,0.2881215206,0.0410819835,0.2681378369,2.3306835266,-0.4606467635,9.5273714268
1520511148852758322,0.2823787426,0.0708118673,0.2643171378,2.4304966468,-0.3023680014,9.5192726907
1520511148857775322,0.2726167553,0.0973152783,0.2677841916,2.5014481419,-0.1776629233,9.6091077095
1520511148862791322,0.2603402350,0.1208958468,0.2742096865,2.5387277410,-0.1045182609,9.6017006593
1520511148867807322,0.2480573794,0.1398142628,0.2805996121,2.5447405795,-0.0481591293,9.6190193344
1520511148872822322,0.2309916994,0.1499768891,0.2915309931,2.5218917930,-0.0229754009,9.7087022588
1520511148877839322,0.2171936490,0.1595529272,0.3043456818,2.4749916522,-0.0169760460,9.8218808729
1520511148882855322,0.1993636481,0.1630177845,0.3136040566,2.4016350217,-0.0253643157,9.8830345523
1520511148887871322,0.1812768480,0.1621103186,0.3233706437,2.2873910890,-0.0241562776,9.9399282731
1520511148892886322,0.1636878117,0.1597555966,0.3296080853,2.1935908074,-0.0457334998,10.0291852562
1520511148897903322,0.1475991393,0.1542064335,0.3320306300,2.0925751195,-0.0409290706,9.9883266212
1520511148902918322,0.1310014515,0.1460440824,0.3309170038,1.9951671347,-0.0732982756,9.9567662722
1520511148907935322,0.1156604734,0.1364180166,0.3324953874,1.9302284782,-0.0672975159,9.9492574909
1520511148912952322,0.1000637586,0.1256357839,0.3305482489,1.9230130719,-0.1116651496,9.8656966221
1520511148917967322,0.0872360825,0.1183512485,0.3286226533,1.8532641446,-0.1344433853,9.7838855120
1520511148922982322,0.0766714562,0.1107703872,0.3288550014,1.8604795509,-0.1020671559,9.6931364811
1520511148927999322,0.0683715498,0.1034730554,0.3323319228,1.8628846863,-0.0864785177,9.6291799521
1520511148933014322,0.0628361541,0.0976395567,0.3336504585,1.8664923894,-0.0576994285,9.6116846135
1520511148938031322,0.0593117174,0.0909268646,0.3371229583,1.8568718477,-0.0169279048,9.5617663064
1520511148943047322,0.0557918950,0.0856623539,0.3438531243,1.8532641446,0.0046569038,9.5152946153
1520511148948063322,0.0575478073,0.0789415313,0.3511034654,1.8496564415,0.0286399932,9.3886326526
1520511148953078322,0.0605597276,0.0710520208,0.3596953101,1.8544667123,0.0742069547,9.3618120866
1520511148958094322,0.0643301587,0.0646109870,0.3715434208,1.8159845455,0.0993919007,9.2680284320
1520511148963111322,0.0688588459,0.0628389570,0.3809907876,1.7787049464,0.1233776126,9.2486114547
1520511148968127322,0.0753979236,0.0610677146,0.3904344207,1.7354125087,0.1257792652,9.1607075575
1520511148973143322,0.0857031828,0.0563819184,0.4006604597,1.6945252065,0.1149901859,9.0960359921
1520511148978159322,0.0947503719,0.0534570490,0.4060323447,1.6187634406,0.0910132780,9.0386895997
1520511148983174322,0.1063089654,0.0493676259,0.4113906702,1.6079403312,0.0538407678,8.9911832926
1520511148988191322,0.1128367445,0.0423653022,0.4156539157,1.5369888361,0.0226686427,8.9465806795
1520511148993208322,0.1251489287,0.0388625857,0.4196625576,1.5057220756,-0.0001125902,8.8841514549
1520511148998223322,0.1367059815,0.0333147832,0.4255508595,1.4732527473,-0.0133006060,8.8472917476
1520511149003238322,0.1467475887,0.0231086080,0.4297831169,1.4600245025,-0.0132995758,8.8904198296
1520511149008255322,0.1580436240,0.0120316853,0.4329241878,1.4588219347,-0.0816504862,8.9207139298
1520511149013271322,0.1650611614,-0.0016599023,0.4325360887,1.4179346325,-0.1176215145,8.9037148225
1520511149018287322,0.1710760989,-0.0136043049,0.4324337408,1.4119217939,-0.1188201866,8.9467738435
1520511149023303322,0.1770903346,-0.0252536810,0.4309808866,1.3746421948,-0.1463975129,8.8925428292
1520511149028319322,0.1820950665,-0.0389380434,0.4276205163,1.3301471895,-0.1643811538,8.8499941301
1520511149033336322,0.1838351521,-0.0529238116,0.4275105412,1.3650216531,-0.2003580827,8.7799611263
1520511149038352322,0.1868348564,-0.0642851698,0.4268771484,1.3121086738,-0.1751720127,8.7641815773
1520511149043367322,0.1878265930,-0.0727283714,0.4243758990,1.2880573195,-0.2015512289,8.7481713886
1520511149048383322,0.1898291545,-0.0776774786,0.4229816432,1.2495751527,-0.2075439339,8.7497139410
1520511149053398322,0.1893152152,-0.0826159154,0.4172633204,1.1930544702,-0.2255266382,8.7444708990
1520511149058416322,0.1880474695,-0.0866768518,0.4102003376,1.1413440585,-0.2555011214,8.6985176917
1520511149063431322,0.1860296536,-0.0884091927,0.4039681772,1.1112798657,-0.2902738522,8.6500341829
1520511149068448322,0.1850125050,-0.0921750040,0.3955542212,1.0992541886,-0.3358402517,8.6432228046
1520511149073463322,0.1844969896,-0.0953520219,0.3849794108,1.0679874280,-0.3802060122,8.6540296972
1520511149078479322,0.1849832431,-0.0991026739,0.3711517366,1.0475437769,-0.4113820710,8.6391512146
1520511149083496322,0.1811894150,-0.1066335289,0.3537859998,1.0174795841,-0.4461548017,8.6487749035
1520511149088511322,0.1789059281,-0.1135868515,0.3385862761,1.0403283706,-0.4545505642,8.6683171400
1520511149093528322,0.1796377213,-0.1199525814,0.3220326684,1.0788105375,-0.4605492635,8.6632998491
1520511149098543322,0.1793665618,-0.1251553524,0.3063014577,1.0667848603,-0.4245741142,8.6773275469
1520511149103559322,0.1750699556,-0.1344419957,0.2916287749,1.0691899958,-0.4077863356,8.7086656528
