#timestamp [ns],w_RS_S_x [rad s^-1],w_RS_S_y [rad s^-1],w_RS_S_z [rad s^-1],a_RS_S_x [m s^-2],a_RS_S_y [m s^-2],a_RS_S_z [m s^-2]
1520520210025251984,-0.0005274278,-0.0264573682,-0.1214353466,0.2947363886,-0.1595039509,9.7909448136
1520520210030267984,-0.0010321543,-0.0343533561,-0.1109431465,0.3380288263,-0.1691004461,9.7731006270
1520520210035283984,0.0024866291,-0.0399152357,-0.1009817211,0.3692955868,-0.1798951450,9.6809974472
1520520210040299984,0.0062617647,-0.0440302923,-0.0872220045,0.3524596388,-0.1834912551,9.6439762195
1520520210045316984,0.0115405573,-0.0513507163,-0.0732189962,0.3548647743,-0.1619069148,9.6323103217
1520520210050331984,0.0180778238,-0.0572137254,-0.0592072061,0.3127749043,-0.1643019175,9.6187766099
1520520210055346984,0.0226047467,-0.0619068850,-0.0470766112,0.2346080030,-0.1235250552,9.6264705448
1520520210060363984,0.0308982980,-0.0665890982,-0.0384701138,0.2875209823,-0.1139360529,9.5690011138
1520520210065378984,0.0359213186,-0.0718458908,-0.0333790918,0.3260031491,-0.1403201393,9.5860844368
1520520210070395984,0.0417065861,-0.0742031114,-0.0228563211,0.3584724774,-0.1571106340,9.5939197787
1520520210075411984,0.0437200424,-0.0771394788,-0.0142248171,0.3656878837,-0.1211369833,9.5891658923
1520520210080427984,0.0434717231,-0.0794910495,-0.0066668500,0.4113854568,-0.1715044402,9.6003916520
1520520210085442984,0.0482549238,-0.0777612678,0.0009129059,0.3644853160,-0.1738990683,9.6252555109
1520520210090459984,0.0510272477,-0.0772014539,0.0098402327,0.3260031491,-0.1235321734,9.6778774384
1520520210095475984,0.0460013103,-0.0789597430,0.0128122335,0.2658747635,-0.1139343670,9.7098312233
1520520210100490984,0.0399696954,-0.0804241276,0.0147061407,0.2815081438,-0.1379183930,9.7097024443
1520520210105506984,0.0387134169,-0.0818888268,0.0174028178,0.2947363886,-0.1762919168,9.6363960384
1520520210110522984,0.0362089123,-0.0784055803,0.0220334423,0.3031543626,-0.1475132023,9.6746367894
1520520210115536984,0.0334477027,-0.0769533829,0.0234024212,0.2815081438,-0.1271261292,9.7131783521
1520520210120553984,0.0324395161,-0.0789927399,0.0231181806,0.2911286855,-0.1511096870,9.7177566743
1520520210125570984,0.0344508751,-0.0781170703,0.0228505701,0.3380288263,-0.1451176376,9.7416993534
1520520210130585984,0.0342012934,-0.0763666763,0.0220527377,0.3692955868,-0.1415226515,9.6983921876
1520520210135601984,0.0367172259,-0.0754973656,0.0242191069,0.4125880245,-0.1499200062,9.7037897108
1520520210140617984,0.0372278252,-0.0717186394,0.0277641702,0.4703112747,-0.1631150465,9.7288078978
1520520210145634984,0.0372334941,-0.0699812587,0.0318356971,0.4919574935,-0.1703115750,9.6774698888
1520520210150648984,0.0359829354,-0.0670744616,0.0342951747,0.4715138424,-0.1775048253,9.6951080501
1520520210155665984,0.0402711127,-0.0571744551,0.0376093760,0.4282214047,-0.1607134876,9.6989994933
1520520210160680984,0.0417880049,-0.0533989773,0.0425053019,0.3957520765,-0.1822954864,9.7365251844
1520520210165696984,0.0392901063,-0.0426201912,0.0431333151,0.3873341025,-0.1607103031,9.7423967915
1520520210170712984,0.0385504684,-0.0306671651,0.0407909487,0.4390445142,-0.1559177688,9.7674559637
1520520210175728984,0.0352956350,-0.0230982747,0.0430191835,0.4642984361,-0.1739068420,9.7788491371
1520520210180743984,0.0315421204,-0.0123228946,0.0447317139,0.4522727590,-0.1799016076,9.8184849288
1520520210185761984,0.0277862731,-0.0035886631,0.0469697745,0.4630958684,-0.1870972930,9.8427916224
1520520210190775984,0.0202590577,0.0060284432,0.0454338626,0.4667035716,-0.1954915570,9.8532239882
1520520210195792984,0.0122270022,0.0144819998,0.0430783541,0.4799318164,-0.1930943064,9.8728493411
1520520210200807984,0.0026837234,0.0208974593,0.0398984468,0.4955651967,-0.1763075580,9.9214908507
1520520210205823984,-0.0061037301,0.0261360211,0.0410369812,0.5304396603,-0.2062887848,9.8653977278
1520520210210839984,-0.0151435802,0.0313781266,0.0408232529,0.4811343841,-0.2218737702,9.8937842914
1520520210215854984,-0.0206685869,0.0354618999,0.0384297309,0.4787292487,-0.2158778808,9.8612618241
1520520210220871984,-0.0304625059,0.0418750756,0.0360619279,0.4715138424,-0.2374618464,9.8601909586
1520520210225886984,-0.0359841724,0.0471185595,0.0358416655,0.4498676236,-0.2230704755,9.8266854428
1520520210230902984,-0.0405063595,0.0494544194,0.0334329381,0.4655010038,-0.2182751314,9.8137450163
1520520210235919984,-0.0435149475,0.0555766836,0.0318619482,0.4149931599,-0.1846952658,9.8327981904
1520520210240935984,-0.0457711327,0.0614115008,0.0289346056,0.3789161285,-0.1978830007,9.7680821434
1520520210245950984,-0.0457684824,0.0672566736,0.0224859658,0.3981572119,-0.1858930950,9.7446402900
1520520210250965984,-0.0437559277,0.0719334539,0.0173774293,0.4161957276,-0.2146738700,9.7479792102
1520520210255983984,-0.0404841110,0.0771869396,0.0147059185,0.3644853160,-0.1870896129,9.7112670262
1520520210260998984,-0.0379719499,0.0798249536,0.0093103411,0.3211928783,-0.1738956965,9.7291077049
1520520210266013984,-0.0349588221,0.0801269892,0.0057898669,0.3849289671,-0.2218662774,9.7215612467
1520520210271030984,-0.0284236843,0.0827592941,0.0030922809,0.4198034308,-0.1906913426,9.7258399731
1520520210276046984,-0.0206320955,0.0856849326,-0.0001465074,0.3813212639,-0.1882900646,9.7018071732
1520520210281061984,-0.0151044464,0.0845193752,0.0006459700,0.4871472227,-0.3154071915,9.7357653968
1520520210286078984,-0.0150912661,0.0874026264,0.0120311285,0.5568961500,-0.3262048876,9.8141228165
1520520210291093984,-0.0183541207,0.0838755949,0.0228323547,0.0638433877,0.0431687634,9.6965366179
1520520210296109984,-0.0266746248,0.0748904157,0.0038406282,0.0506151429,0.0899362701,9.7640241186
1520520210301125984,-0.0261628141,0.0883241666,-0.0071504250,0.2297977321,-0.1427109273,9.7776147885
1520520210306142984,-0.0233843194,0.0976444554,-0.0051905990,0.3091672012,-0.1223317217,9.7512552090
1520520210311157984,-0.0226228566,0.1028882154,-0.0046108918,0.1949232684,-0.0683615049,9.7546388570
1520520210316172984,-0.0289226124,0.0921132677,-0.0079280287,0.3091672012,-0.1115394579,9.7221910861
1520520210321188984,-0.0274170697,0.0880235486,-0.0039037638,0.3248005814,-0.0731681819,9.7359472289
1520520210326205984,-0.0274183557,0.0833446422,0.0022832225,0.2875209823,-0.0923515252,9.6828701732
1520520210331220984,-0.0266632831,0.0798286556,0.0095598845,0.3380288263,-0.0419915612,9.7160316233
1520520210336237984,-0.0238941621,0.0812771917,0.0130829626,0.3392313940,-0.0995503952,9.7009681751
1520520210341252984,-0.0201232801,0.0792251366,0.0182007722,0.3536622065,-0.0911575361,9.7263866960
1520520210346267984,-0.0170944197,0.0844508435,0.0258104721,0.3440416648,-0.0755679613,9.7136815516
1520520210351284984,-0.0120584657,0.0882247860,0.0317820475,0.2598619249,-0.0887519498,9.7238109199
1520520210356300984,-0.0095377855,0.0911272325,0.0363988913,0.2502413832,-0.0743615154,9.7599169908
1520520210361316984,-0.0045060930,0.0940372194,0.0385761549,0.1937207007,-0.0719588326,9.7569783580
1520520210366330984,0.0000086179,0.0873356906,0.0390577147,0.2370131384,-0.0719622043,9.7402869606
1520520210371347984,0.0015010977,0.0750937606,0.0405848201,0.2586593572,-0.1403148943,9.7994122636
1520520210376364984,0.0024930459,0.0637228736,0.0432017119,0.2766978729,-0.1942776183,9.7853435805
1520520210381378984,0.0029757553,0.0482760484,0.0444356844,0.3031543626,-0.1726951512,9.8001728926
1520520210386395984,0.0099958881,0.0363320395,0.0443314696,0.2754953052,-0.1906801034,9.8016217929
1520520210391410984,0.0139954168,0.0197203262,0.0458205616,0.3211928783,-0.2218613134,9.8105045552
1520520210396427984,0.0182447937,0.0025281275,0.0464931029,0.3296108523,-0.2362516541,9.7720859014
1520520210401442984,0.0219939959,-0.0117453238,0.0452949873,0.3464468003,-0.2734263185,9.7847418636
1520520210406458984,0.0280091137,-0.0219341350,0.0425005190,0.3344211231,-0.2350528884,9.7604164723
1520520210411474984,0.0352768091,-0.0353291406,0.0402203550,0.3248005814,-0.2410478412,9.7395973683
1520520210416489984,0.0425535686,-0.0417294606,0.0374524531,0.3933469411,-0.2590402862,9.7331370004
1520520210421507984,0.0515996678,-0.0417237310,0.0366240134,0.3704981545,-0.2758264726,9.6915385849
1520520210426522984,0.0619004539,-0.0443457972,0.0379375995,0.3223954460,-0.1858871944,9.6884326548
1520520210431537984,0.0737100091,-0.0431654336,0.0341369133,0.2742927375,-0.1642989204,9.7039876804
1520520210436553984,0.0822521072,-0.0425698475,0.0306083942,0.3332185554,-0.1439181225,9.7022321099
1520520210441569984,0.0892961310,-0.0364458304,0.0298303731,0.3560673420,-0.1774958339,9.7078531751
1520520210446586984,0.1008652430,-0.0314965056,0.0330932470,0.3380288263,-0.1667021652,9.7428825455
1520520210451601984,0.1094136254,-0.0288728827,0.0339090239,0.3717007222,-0.1187391707,9.7471566062
1520520210456618984,0.1136942363,-0.0242163408,0.0366421179,0.3825238317,-0.1427228222,9.6796702981
1520520210461633984,0.1169720669,-0.0195682055,0.0423530837,0.4005623473,-0.1715035972,9.7504135676
1520520210466648984,0.1225174361,-0.0114262119,0.0494392554,0.3404339617,-0.1786937568,9.7428708288
1520520210471665984,0.1235360824,-0.0059091797,0.0567843664,0.2370131384,-0.1990710892,9.7717887973
1520520210476681984,0.1227893955,-0.0027137149,0.0603273171,0.1119460962,-0.2374338421,9.7869892695
1520520210481696984,0.1192668171,-0.0041640032,0.0573467310,0.0313740595,-0.2614103754,9.8156883499
1520520210486712984,0.1142343405,-0.0047298021,0.0503174260,0.0349817626,-0.3129736945,9.9098371766
1520520210491729984,0.1089549168,-0.0035539482,0.0457368393,0.0217535178,-0.3801245280,9.9530307416
1520520210496745984,0.0988842829,-0.0108133624,0.0348780952,-0.0143235136,-0.3417492247,9.9405608909
1520520210501760984,0.0868051911,-0.0177872787,0.0259191293,0.0566279814,-0.3897203675,10.0119699913
1520520210506776984,0.0790052166,-0.0203923955,0.0183383049,0.0662485231,-0.4232970487,10.0014497968
1520520210511792984,0.0696890907,-0.0288243367,0.0101747273,0.0866921743,-0.4256969217,10.0186853088
1520520210516807984,0.0613790854,-0.0360881607,0.0012065375,0.0902998774,-0.3741341645,10.0104649044
1520520210521824984,0.0570903907,-0.0424740705,-0.0085740884,0.0902998774,-0.3633419007,9.9581579024
1520520210526839984,0.0530587107,-0.0459518641,-0.0161685829,0.1311871796,-0.2877992385,9.9507133984
1520520210531855984,0.0525544508,-0.0436049593,-0.0221018745,0.1937207007,-0.2554273173,9.8745338062
1520520210536871984,0.0563284652,-0.0401061397,-0.0223527442,0.1877078622,-0.2086603725,9.8757088712
1520520210541887984,0.0578423780,-0.0339791896,-0.0250143187,0.1347948828,-0.1654871962,9.9075596843
1520520210546903984,0.0608628958,-0.0287258023,-0.0276853628,0.1564411016,-0.1403069332,9.9247565964
1520520210551919984,0.0651312829,-0.0304680651,-0.0293299110,0.2093540810,-0.1894758116,9.9417216762
1520520210556934984,0.0661320835,-0.0319165812,-0.0323188982,0.2201771904,-0.1594981440,10.0426936212
1520520210561951984,0.0693925035,-0.0356989296,-0.0339771411,0.1889104299,-0.1810802364,10.1162340699
1520520210566966984,0.0693724976,-0.0458769919,-0.0416302341,0.1468205599,-0.1654881328,10.1817086069
1520520210571982984,0.0685946827,-0.0577985578,-0.0511890868,0.2093540810,-0.1702895649,10.1892396290
1520520210576998984,0.0705878785,-0.0676924608,-0.0558676857,0.2454311124,-0.2302493958,10.1889469443
1520520210582012984,0.0703201766,-0.0770044808,-0.0605376380,0.2706850343,-0.2002728521,10.1642668816
1520520210587030984,0.0682976994,-0.0813556403,-0.0681425355,0.3031543626,-0.1930805384,10.0988637676
1520520210592046984,0.0637650409,-0.0868878910,-0.0703407403,0.3356236908,-0.2230615778,10.0799826613
1520520210597062984,0.0592376592,-0.0895106671,-0.0708934389,0.3187877429,-0.2038740198,10.0231827689
1520520210602078984,0.0582310996,-0.0906773275,-0.0706299184,0.3584724774,-0.1798943021,9.9321258868
1520520210607094984,0.0574812921,-0.0886423018,-0.0689896813,0.4005623473,-0.1319319632,9.8805351023
1520520210612109984,0.0554836545,-0.0813679458,-0.0654132737,0.4282214047,-0.1007564664,9.7977232624
1520520210617125984,0.0557486748,-0.0732178218,-0.0621049433,0.4474624882,-0.0731777352,9.7719419197
1520520210622142984,0.0575280390,-0.0618691615,-0.0560695003,0.4282214047,-0.0036260921,9.7046570296
1520520210627156984,0.0580524930,-0.0493554554,-0.0500228314,0.4546778944,0.0347443409,9.6787949325
1520520210632171984,0.0608360803,-0.0403447618,-0.0413015810,0.4679061393,0.0647218212,9.6693397918
1520520210637189984,0.0658778835,-0.0330778472,-0.0339505992,0.4378419465,0.0755164265,9.6754326139
1520520210642204984,0.0684074042,-0.0246434653,-0.0276682413,0.4294239725,0.1210844183,9.6231736364
1520520210647220984,0.0694204207,-0.0226201337,-0.0214319910,0.4775266810,0.1042927059,9.6482889719
1520520210652236984,0.0719451467,-0.0173895247,-0.0157151789,0.4642984361,0.1342722468,9.7378735785
1520520210657252984,0.0686914933,-0.0118734378,-0.0086326796,0.4907549258,0.1750409607,9.7515220372
1520520210662268984,0.0684451145,-0.0110117660,-0.0040262634,0.5172114155,0.1846320235,9.7791466262
1520520210667284984,0.0651859177,-0.0095750625,0.0030251128,0.4847420873,0.1750414290,9.8050391844
1520520210672300984,0.0606643303,-0.0128024605,0.0105843449,0.4715138424,0.1810381613,9.8586207152
1520520210677316984,0.0553871725,-0.0180734878,0.0194821451,0.3885366702,0.1942351685,9.8919555321
1520520210682331984,0.0508597790,-0.0250866994,0.0262008395,0.3717007222,0.1990330415,9.9293033321
1520520210687348984,0.0440705628,-0.0326857515,0.0337309259,0.3765109931,0.1810455605,9.9606519387
1520520210692364984,0.0397955267,-0.0379461870,0.0388392167,0.3380288263,0.1882434001,9.9412630372
1520520210697379984,0.0332598557,-0.0429183092,0.0447655688,0.2887235500,0.1894463806,9.9673089422
1520520210702396984,0.0279789225,-0.0478841118,0.0485252200,0.2454311124,0.1786574886,9.9526329769
1520520210707411984,0.0224425584,-0.0545924925,0.0501076324,0.2706850343,0.1666641175,9.9756417432
1520520210712427984,0.0181664717,-0.0586786487,0.0519782647,0.2803055761,0.1582693852,9.9778805760
1520520210717443984,0.0154025687,-0.0627787827,0.0592570147,0.3464468003,0.1642599360,9.9412044886
1520520210722459984,0.0121357623,-0.0662927025,0.0651884148,0.4017649151,0.1534633639,9.9604330273
1520520210727475984,0.0071135611,-0.0665998963,0.0703358982,0.4210059985,0.2014274822,9.9055782070
1520520210732490984,0.0005851859,-0.0689619412,0.0808815382,0.4077777536,0.2457967082,9.8766100982
1520520210737506984,-0.0039348607,-0.0707309597,0.0879107940,0.3656878837,0.2146223353,9.8979687692
1520520210742523984,-0.0079542894,-0.0739567040,0.0949280010,0.3668904514,0.1954359948,9.8584628791
1520520210747538984,-0.0149867911,-0.0733868898,0.0987331579,0.3801186962,0.2122229305,9.9036413669
1520520210752554984,-0.0192503012,-0.0704900153,0.1044447869,0.3668904514,0.1342798332,9.8596846594
1520520210757571984,-0.0232653705,-0.0690470513,0.1090626501,0.3476493680,0.1246882084,9.8436112796
1520520210762586984,-0.0267792455,-0.0670138370,0.1109785671,0.3344211231,0.1378797833,9.8332678769
1520520210767601984,-0.0285324450,-0.0638143954,0.1129001094,0.3632827482,0.0875136377,9.7726045822
1520520210772617984,-0.0297844032,-0.0588540664,0.1102347765,0.3500545034,0.0395490510,9.7890501267
1520520210777634984,-0.0290209605,-0.0521533837,0.1108255991,0.3596750451,0.0563362677,9.7773186760
1520520210782648984,-0.0280084222,-0.0483722754,0.1135580913,0.2959389563,0.0167695977,9.7721669124
1520520210787665984,-0.0264968853,-0.0439936324,0.1108831782,0.2285951644,-0.0251950722,9.8019169213
1520520210792681984,-0.0224800557,-0.0439789454,0.1060058845,0.1191615025,-0.0587624810,9.8367169976
1520520210797696984,-0.0192244617,-0.0462817897,0.0959718343,0.1083383931,-0.1391040464,9.8787378712
1520520210802713984,-0.0172232918,-0.0462504080,0.0846051729,0.0482100075,-0.2038529463,9.8526569574
1520520210807728984,-0.0152254190,-0.0476715783,0.0716041207,-0.0588185190,-0.2997758444,9.8444951029
1520520210812750984,-0.0104690064,-0.0473164065,0.0486010749,-0.0708441961,-0.3861130183,9.8098320273
1520520210817760984,-0.0039596178,-0.0516234263,0.0258297385,-0.0804647378,-0.4172899200,9.7297681377
1520520210822776984,0.0038117614,-0.0530212076,0.0049721207,-0.1069212275,-0.4856388636,9.7196330057
1520520210827792984,0.0105709512,-0.0590793499,-0.0167308373,-0.0973006858,-0.5443974937,9.7370288222
1520520210832807984,0.0226096158,-0.0636792304,-0.0381619352,-0.0948955504,-0.5264105746,9.7265285764
1520520210837823984,0.0328909018,-0.0679927862,-0.0579642675,-0.0973006858,-0.5216138256,9.6870344147
1520520210842840984,0.0449294762,-0.0734704625,-0.0780493051,-0.0022978365,-0.4376813951,9.6581364066
1520520210847855984,0.0552150237,-0.0769200627,-0.0940573257,0.0602356846,-0.3777292443,9.6574692767
1520520210852872984,0.0645002960,-0.0795082865,-0.1054575298,0.1552385339,-0.3033899372,9.6192834717
1520520210857888984,0.0755479923,-0.0838630674,-0.1098401463,0.2261900290,-0.2134599313,9.6301266125
1520520210862902984,0.0838330286,-0.0873462347,-0.1136698677,0.2297977321,-0.1319186635,9.6265255504
1520520210867919984,0.0913736635,-0.0867634257,-0.1125972396,0.2213797581,-0.0671644250,9.6021393184
1520520210872934984,0.0979061158,-0.0867564953,-0.1142326498,0.1877078622,-0.0515729771,9.6152354421
1520520210877951984,0.1014251345,-0.0864651892,-0.1136958691,0.2009361070,-0.0563705690,9.7057585922
1520520210882966984,0.0999122802,-0.0908394616,-0.1126442314,0.2370131384,-0.0419836937,9.7507170227
1520520210887983984,0.1016655620,-0.0960880645,-0.1110642386,0.3308134200,0.0083728986,9.8264564170
1520520210892998984,0.0978824326,-0.1092156852,-0.1060169046,0.3789161285,0.0719235946,9.9188977561
1520520210898014984,0.0923453941,-0.1217757947,-0.0955509394,0.4679061393,0.1702461785,9.9853400455
1520520210903030984,0.0840559003,-0.1267660886,-0.0831282188,0.6037962908,0.3057384628,9.9873716706
1520520210908046984,0.0742632279,-0.1303087917,-0.0674450317,0.7084196819,0.4016615482,9.9897462154
1520520210913061984,0.0624715967,-0.1280362467,-0.0473849147,0.7529146872,0.4184460487,9.8672716424
1520520210918078984,0.0532087492,-0.1138144948,-0.0277794102,0.6951914370,0.4316410891,9.7934434093
1520520210923094984,0.0409280732,-0.1007572771,-0.0089888351,0.7048119787,0.4460300249,9.8026328884
1520520210928109984,0.0324256811,-0.0804103273,0.0084975868,0.6615195411,0.4304445711,9.7461244181
1520520210933125984,0.0201468164,-0.0632613429,0.0227200048,0.6434810254,0.4052640271,9.7928103082
1520520210938142984,0.0113868410,-0.0449425283,0.0358625975,0.6194296711,0.3405123175,9.8372690239
1520520210943157984,-0.0014034501,-0.0289352408,0.0411490421,0.5749346657,0.3081389915,9.8574901304
1520520210948173984,-0.0159562202,-0.0152589902,0.0461504232,0.5653141240,0.2241999111,9.8843949356
1520520210953189984,-0.0272484370,-0.0047801336,0.0486863699,0.5364524989,0.1402623293,9.9370541886
1520520210958206984,-0.0385488749,0.0019209222,0.0474057739,0.5484781760,0.0623172652,10.0009310626
1520520210963220984,-0.0528621741,0.0094898511,0.0480312691,0.5087934415,0.0155538794,9.9897414941
1520520210968237984,-0.0676859823,0.0141578496,0.0437656409,0.4546778944,-0.0372040845,9.9728875133
1520520210973253984,-0.0749741658,0.0176690910,0.0373127514,0.4173982953,-0.0419977427,9.9430393046
1520520210978268984,-0.0832688658,0.0197208307,0.0316622510,0.3897392379,-0.0515887119,9.8886971097
1520520210983283984,-0.0908060194,0.0238096438,0.0271080957,0.4282214047,-0.0276089006,9.9034070325
1520520210988300984,-0.0953302687,0.0267377423,0.0211867178,0.4390445142,-0.0312071648,9.8649544446
1520520210993315984,-0.0955862210,0.0270457823,0.0149668520,0.4414496496,-0.0120211053,9.8230751427
1520520210998332984,-0.0965901343,0.0302608163,0.0112055303,0.4246137016,-0.0024266707,9.7790681885
1520520211003348984,-0.0978445153,0.0323022010,0.0104117878,0.4751215456,0.0263487657,9.7785485120
1520520211008363984,-0.0950726658,0.0360832702,0.0134115589,0.5015780352,0.0743123221,9.7224613174
1520520211013379984,-0.0875290395,0.0387050424,0.0147702944,0.4715138424,0.0743146636,9.7320510954
1520520211018396984,-0.0794863362,0.0384117095,0.0166469574,0.4799318164,0.0803097101,9.7063961463
1520520211023411984,-0.0714415275,0.0372332964,0.0225751397,0.5039831707,0.0803078369,9.6991891815
1520520211028428984,-0.0631515320,0.0328555795,0.0263140341,0.4390445142,0.0551309457,9.7068186744
1520520211033442984,-0.0558666417,0.0293552645,0.0287087351,0.4450573527,0.0623253199,9.7032667012
1520520211038458984,-0.0468224831,0.0261477517,0.0308318463,0.4510701913,0.0323463410,9.6858052501
1520520211043475984,-0.0355226567,0.0206195183,0.0294158757,0.4089803213,-0.0180142786,9.7083447744
1520520211048492984,-0.0284993563,0.0110065857,0.0293294456,0.3837263994,-0.0048217671,9.7469284684
1520520211053507984,-0.0217262569,0.0013899124,0.0305962117,0.4198034308,-0.0084219982,9.7372836731
1520520211058523984,-0.0154562374,-0.0079326595,0.0307839508,0.4378419465,-0.0132199648,9.7231670471
1520520211063537984,-0.0066767933,-0.0198767076,0.0309470149,0.4450573527,-0.0204153693,9.7149688251
1520520211068554984,0.0078878047,-0.0274455380,0.0303210529,0.4703112747,-0.0168199149,9.6996116395
1520520211073571984,0.0166718671,-0.0364779262,0.0313179856,0.4727164101,-0.0479977532,9.6961322004
1520520211078587984,0.0247020761,-0.0458034510,0.0328551871,0.4871472227,-0.1043584770,9.7030195624
1520520211083601984,0.0375141372,-0.0487115467,0.0325386074,0.4667035716,-0.0743783742,9.6741357160
1520520211088618984,0.0465499414,-0.0562818147,0.0316523675,0.4318291079,-0.0827696410,9.7163205303
1520520211093634984,0.0553346742,-0.0609259525,0.0261895449,0.4137905922,-0.1319329935,9.7060847535
1520520211098650984,0.0588492118,-0.0614978736,0.0226614680,0.4125880245,-0.1091492318,9.7386142718
1520520211103665984,0.0621102983,-0.0623554502,0.0169672675,0.4642984361,-0.0695816252,9.6904244641
1520520211108681984,0.0661371994,-0.0562275155,0.0143010257,0.4907549258,-0.0479991581,9.6645787378
1520520211113696984,0.0691616729,-0.0495237615,0.0140760101,0.5184139832,-0.0336116272,9.7096191036
1520520211118713984,0.0686636974,-0.0451488199,0.0124870145,0.4931600612,0.0119576757,9.7574683770
1520520211123729984,0.0671625456,-0.0410736694,0.0138736675,0.4582855976,0.0251509365,9.8159021586
1520520211128744984,0.0603808645,-0.0387459800,0.0141745996,0.4606907330,0.0431378556,9.8239962161
1520520211133759984,0.0513330520,-0.0390387236,0.0133775409,0.3981572119,0.0611298322,9.8803702488
1520520211138777984,0.0412857603,-0.0364238432,0.0147689470,0.3849289671,0.0527368795,9.8816693337
1520520211143792984,0.0292330489,-0.0303138646,0.0164613099,0.3777135608,0.0863133734,9.8282482007
1520520211148808984,0.0171820077,-0.0236240306,0.0192403026,0.3440416648,0.1114979447,9.8378485377
1520520211153824984,0.0026179781,-0.0169351813,0.0220239624,0.3873341025,0.1031005900,9.8874075311
1520520211158841984,-0.0094310833,-0.0087884247,0.0248140705,0.3861315348,0.0911092794,9.8665123384
1520520211163855984,-0.0222376049,-0.0032644242,0.0275855710,0.4426522173,0.0551306647,9.8892401600
1520520211168873984,-0.0350465925,-0.0003665266,0.0316897931,0.4510701913,0.0527317282,9.8903227072
1520520211173888984,-0.0465989134,0.0013604977,0.0379471565,0.4330316756,0.0659236778,9.8660803973
1520520211178904984,-0.0558986401,0.0007769995,0.0368777955,0.4799318164,0.0503311996,9.8342612148
1520520211183919984,-0.0619321447,-0.0012665120,0.0374145271,0.4582855976,0.0143586727,9.7856969399
1520520211188935984,-0.0649499339,-0.0041873662,0.0395622641,0.4835395195,0.0011661612,9.7657075492
1520520211193951984,-0.0619335090,-0.0024327785,0.0376761806,0.4594881653,0.0023671748,9.7182925789
1520520211198967984,-0.0629389670,-0.0021396025,0.0368686329,0.4967677644,-0.0432030647,9.6354619363
1520520211203983984,-0.0581638423,0.0007877683,0.0325532617,0.5268319572,-0.0204217382,9.6165527891
1520520211208998984,-0.0501158502,0.0077943456,0.0288040381,0.5364524989,-0.0312147513,9.5618489069
1520520211214014984,-0.0420740172,0.0104308833,0.0247509223,0.5352499312,-0.0432060618,9.5618723053
1520520211219031984,-0.0327698407,0.0165608856,0.0220748793,0.5136037124,-0.0228189887,9.5934410044
1520520211224047984,-0.0247206216,0.0226852965,0.0212949913,0.5280345249,-0.0108287084,9.5863159866
1520520211229062984,-0.0169259553,0.0270642156,0.0194200479,0.5905680460,0.0191449318,9.5438409078
1520520211234077984,-0.0116497815,0.0256064468,0.0204813148,0.5737320980,0.0335359282,9.5498014663
1520520211239094984,0.0021727518,0.0256082197,0.0218083745,0.5953783168,0.0143479955,9.5275287496
1520520211244110984,0.0077022905,0.0250217892,0.0239580276,0.6146194003,0.0419267267,9.5308010057
1520520211249126984,0.0152368096,0.0209417173,0.0252656322,0.5328447958,0.0527253594,9.5780721837
1520520211254143984,0.0230248269,0.0183179381,0.0268544314,0.5148062801,-0.0060311165,9.5608728978
1520520211259158984,0.0298123142,0.0197760622,0.0273940371,0.5124011447,-0.0132257717,9.5678761877
1520520211264172984,0.0340773610,0.0168740887,0.0235762294,0.5244268218,-0.0372095168,9.6049711305
1520520211269190984,0.0421126823,0.0145563611,0.0197558670,0.5136037124,-0.0731828865,9.5516529343
1520520211274205984,0.0478920300,0.0151457652,0.0181263032,0.5196165509,-0.0348108613,9.5643405736
1520520211279221984,0.0561874005,0.0174822758,0.0173170483,0.5184139832,0.0143539897,9.5898715027
1520520211284236984,0.0609580363,0.0166194624,0.0137844147,0.5400602021,0.0359368315,9.6152069306
1520520211289253984,0.0667338204,0.0145864058,0.0121348431,0.5316422281,0.0779074019,9.6094372194
1520520211294269984,0.0717546494,0.0108003761,0.0120966085,0.5593012855,0.1102820392,9.6637571968
1520520211299284984,0.0750204796,0.0105124568,0.0112766803,0.5063883061,0.1078878794,9.6817067172
1520520211304299984,0.0730082425,0.0096397008,0.0104621072,0.4354368110,0.1210839500,9.6649522935
1520520211309316984,0.0735046851,0.0067333368,0.0077334839,0.4739189778,0.1138861103,9.6715576115
1520520211314332984,0.0727430066,0.0029537837,0.0044594332,0.4691087070,0.1198821871,9.7552729497
1520520211319348984,0.0694697904,-0.0002461701,0.0020061336,0.4005623473,0.0815150321,9.7420318293
1520520211324364984,0.0659416725,-0.0043123633,-0.0034293734,0.4089803213,0.0671246914,9.7175589030
1520520211329381984,0.0621607150,-0.0098370344,-0.0083344373,0.4137905922,0.0671243168,9.7105392190
1520520211334395984,0.0629055553,-0.0139044675,-0.0126956950,0.4065751859,0.0407437894,9.7594452209
1520520211339412984,0.0631426505,-0.0217600964,-0.0170849193,0.3777135608,0.0479408798,9.7504219746
1520520211344427984,0.0636363645,-0.0269989935,-0.0192902355,0.3933469411,0.0587319260,9.6991249508
1520520211349443984,0.0641331561,-0.0307846101,-0.0201317067,0.4787292487,0.1582539313,9.7202775718
1520520211354459984,0.0696567122,-0.0354489671,-0.0185542686,0.4871472227,0.2481888075,9.6910543371
1520520211359476984,0.0774481990,-0.0377915599,-0.0131756038,0.4955651967,0.3297297006,9.6548664240
1520520211364490984,0.0847384055,-0.0401387201,-0.0061727302,0.6098091294,0.3417122072,9.6293377272
1520520211369507984,0.0968094016,-0.0392846073,0.0030100968,0.6759503536,0.4292443068,9.6402300269
1520520211374523984,0.1013390492,-0.0431087124,0.0170411823,0.7360787393,0.4652138365,9.6535554214
1520520211379539984,0.1126636603,-0.0411090245,0.0335390410,0.6987991402,0.4724115825,9.6527491181
1520520211384553984,0.1199589632,-0.0423023015,0.0448795413,0.6338604837,0.4436372700,9.7091921651
1520520211389570984,0.1217236180,-0.0472959414,0.0599890519,0.6086065617,0.4340461134,9.7815002512
1520520211394586984,0.1222241731,-0.0557772183,0.0715571226,0.5460730406,0.3956784902,9.7995784923
1520520211399602984,0.1249890208,-0.0595830733,0.0785572818,0.4474624882,0.3321317279,9.8191945852
1520520211404619984,0.1204633053,-0.0630894726,0.0815150106,0.4414496496,0.2757725963,9.8425509485
1520520211409634984,0.1197034615,-0.0703874929,0.0863306598,0.4558804621,0.2541869447,9.8924037259
1520520211414649984,0.1119116531,-0.0733124031,0.0892989022,0.3644853160,0.1786482162,9.8654755237
1520520211419666984,0.1056299273,-0.0739027325,0.0911999454,0.3596750451,0.1234881314,9.7865503446
1520520211424681984,0.1003498370,-0.0756516504,0.0906553163,0.3235980137,0.0683304817,9.8160088848
1520520211429699984,0.0928115386,-0.0727298323,0.0866333604,0.2646721958,0.0491488243,9.8317090134
1520520211434712984,0.0852719230,-0.0698036437,0.0809881291,0.2622670604,0.0407550286,9.7957141463
1520520211439729984,0.0774818436,-0.0665876258,0.0758866795,0.3103697689,0.0479461248,9.7568881775
1520520211444744984,0.0692011277,-0.0566794303,0.0743543909,0.3584724774,0.0779208890,9.7064185517
1520520211449761984,0.0601610659,-0.0485096393,0.0690225214,0.3668904514,0.1102970248,9.6923593167
1520520211454776984,0.0523815442,-0.0380111936,0.0647882865,0.3753084254,0.1630585478,9.6620101876
1520520211459792984,0.0436007867,-0.0245992964,0.0605781494,0.2983440917,0.0935143975,9.6790971483
1520520211464808984,0.0383357509,-0.0123486452,0.0552704023,0.2875209823,0.0851212574,9.7233721494
1520520211469824984,0.0312981645,-0.0085422785,0.0474665397,0.2177720550,0.0275679494,9.7485121940
1520520211474841984,0.0260222220,-0.0026948026,0.0394044257,0.1828975913,0.0287698059,9.7558233350
1520520211479856984,0.0167179359,-0.0006288881,0.0283448743,0.1732770496,0.0455585212,9.7640356124
1520520211484871984,0.0119399297,0.0025999661,0.0189090896,0.1913155653,0.0479553971,9.7545605462
1520520211489887984,0.0094283175,0.0081556836,0.0113807104,0.2261900290,0.0971174383,9.7169845502
1520520211494904984,0.0064122573,0.0113757575,0.0054587553,0.2454311124,0.1294927312,9.6853878103
1520520211499919984,0.0089335216,0.0192521370,0.0025381065,0.2285951644,0.1462820084,9.6553195676
1520520211504936984,0.0112031773,0.0262513508,0.0006934388,0.2406208415,0.1966449695,9.6237755180
1520520211509951984,0.0119594927,0.0277071119,0.0012442458,0.2478362478,0.2146315139,9.6620384980
1520520211514966984,0.0164814250,0.0285917789,-0.0020040367,0.2442285447,0.2206274970,9.6643920544
1520520211519984984,0.0212601996,0.0335559276,-0.0052216627,0.2682798989,0.2170282026,9.6351078625
1520520211524999984,0.0260343050,0.0329743008,-0.0049644307,0.2658747635,0.2158292495,9.6397810177
1520520211530014984,0.0318090266,0.0277250879,-0.0025802678,0.2610644926,0.2230244666,9.6096050791
1520520211535030984,0.0403497996,0.0253980876,-0.0028844670,0.2598619249,0.2050374540,9.5643107100
1520520211540046984,0.0486379956,0.0213190396,-0.0018488085,0.2598619249,0.2002408923,9.5492075160
1520520211545063984,0.0579333707,0.0201607865,-0.0032276991,0.1985309716,0.1966482476,9.5044843677
1520520211550079984,0.0692388268,0.0181262537,-0.0035348091,0.2129617841,0.1714651748,9.4869363038
1520520211555094984,0.0785267178,0.0096753747,-0.0019932720,0.1696693465,0.1570788615,9.5013174454
1520520211560110984,0.0898247839,0.0026894902,-0.0031498121,0.1071358254,0.1450923276,9.5298292566
1520520211565125984,0.0971042719,-0.0013782968,-0.0064410211,0.0433997366,0.0899368321,9.5490977174
1520520211570142984,0.1036227833,-0.0095206635,-0.0116557743,-0.0251466230,0.0239894474,9.5544777951
1520520211575158984,0.1108927761,-0.0176547221,-0.0198479325,-0.1093263629,0.0191994419,9.5843554253
1520520211580174984,0.1133820695,-0.0281122580,-0.0315661043,-0.0852750087,-0.0035860993,9.6643314745
1520520211585189984,0.1163744466,-0.0374004167,-0.0446290468,-0.0588185190,-0.0371640917,9.7442946376
1520520211590206984,0.1186140681,-0.0469853543,-0.0557989908,-0.0516031127,-0.0575500408,9.7663250211
1520520211595221984,0.1188411898,-0.0571494781,-0.0685929226,-0.0840724410,-0.0923225843,9.7771342641
1520520211600237984,0.1165548371,-0.0684837666,-0.0800383501,-0.1069212275,-0.0839268218,9.7831591945
1520520211605253984,0.1160270038,-0.0804008635,-0.0912209449,-0.1273648786,-0.0935183530,9.7880161110
1520520211610269984,0.1122397188,-0.0876607300,-0.1010091734,-0.0696416284,-0.0527520743,9.8164681096
1520520211615284984,0.1077000309,-0.0946331495,-0.1094410492,-0.0768570347,-0.0299678442,9.7793275160
1520520211620301984,0.1061749607,-0.1024792695,-0.1176146490,-0.0708441961,-0.0167777679,9.7664725445
1520520211625317984,0.1041527893,-0.1074168402,-0.1238712633,-0.0732493316,0.0419803002,9.7931679679
1520520211630332984,0.0993731013,-0.1091582769,-0.1271222848,-0.0251466230,0.0707559239,9.7531588071
1520520211635348984,0.0973584492,-0.1100230201,-0.1309128628,-0.0239440553,0.0887429366,9.7391838345
1520520211640364984,0.0943440942,-0.1094428893,-0.1303617242,0.0193483823,0.0707524585,9.7759685991
1520520211645380984,0.0895675190,-0.1129508439,-0.1268624368,0.0097278406,0.0383764164,9.8237417138
1520520211650396984,0.0847909908,-0.1152881614,-0.1252480784,0.0301714918,0.0479679475,9.8258576610
1520520211655413984,0.0832850835,-0.1161731037,-0.1214643048,0.0205509501,0.0791463478,9.8328937624
1520520211660428984,0.0797712515,-0.1144327308,-0.1190095191,-0.0047029719,0.1043302636,9.8912222102
1520520211665443984,0.0775134197,-0.1167880029,-0.1103656346,-0.0215389199,0.1151238386,9.9029969965
1520520211670459984,0.0787713605,-0.1176704054,-0.1071280867,0.0205509501,0.1247136839,9.8688757901
1520520211675476984,0.0772757443,-0.1124428286,-0.1008627152,0.0518177106,0.1726768657,9.8243632148
1520520211680491984,0.0772947387,-0.1028468068,-0.0934846142,0.0025124344,0.1906678121,9.8469063172
1520520211685507984,0.0818388683,-0.0932548403,-0.0839505471,0.0025124344,0.2086549185,9.8073758826
1520520211690523984,0.0873907063,-0.0798657399,-0.0776359974,0.0349817626,0.2278386364,9.8035547048
1520520211695539984,0.0891747789,-0.0647276239,-0.0721127462,0.0169432469,0.2074546541,9.8583709253
1520520211700556984,0.0909615292,-0.0498910905,-0.0628040754,0.0037150021,0.1906677184,9.9096503856
1520520211705571984,0.0914875239,-0.0359190049,-0.0572873828,-0.0323620293,0.1882722474,9.9227874595
1520520211710587984,0.0912550940,-0.0239810789,-0.0539492189,-0.1117314984,0.1846810077,9.9502928122
1520520211715601984,0.0887626487,-0.0100007052,-0.0519440223,-0.1381879881,0.1463105747,10.0249649553
1520520211720619984,0.0847592897,0.0028186387,-0.0518387389,-0.1514162329,0.1367184815,10.0739131118
1520520211725634984,0.0792421553,0.0115594654,-0.0523028703,-0.1923035351,0.1595053340,10.1103153288
1520520211730650984,0.0714610457,0.0194288945,-0.0541221998,-0.1898983997,0.1690982701,10.1335254431
1520520211735666984,0.0646807759,0.0240934877,-0.0559678502,-0.1490110975,0.1630993835,10.1401061816
1520520211740682984,0.0568944758,0.0284677593,-0.0583549485,-0.1646444777,0.1858842691,10.1297768343
1520520211745698984,0.0498620251,0.0316716892,-0.0588585182,-0.1478085298,0.2398442770,10.1132903279
1520520211750713984,0.0425798084,0.0334069432,-0.0550440021,-0.1345802849,0.2506355105,10.1061781845
1520520211755730984,0.0355432608,0.0316485949,-0.0523388134,-0.1357828526,0.1966742851,10.1364582526
1520520211760746984,0.0277416044,0.0240731873,-0.0537348747,0.0602356846,0.1666805080,10.1950110475
1520520211765761984,0.0191866552,0.0123977048,-0.0475853739,0.2009361070,0.3981036515,10.1271736680
1520520211770778984,0.0154247156,0.0088588215,-0.0324544799,-0.0275517585,0.4988492424,10.0351657440
1520520211775793984,0.0048679928,0.0012517367,-0.0224824796,-0.1429982589,0.5000573742,10.0200182447
1520520211780808984,0.0018603064,-0.0002391468,-0.0103134290,-0.1478085298,0.4808715021,10.0235702062
1520520211785825984,-0.0026705253,-0.0122168219,0.0004256613,-0.1466059620,0.3849401745,9.9760041462
1520520211790840984,-0.0029182330,-0.0157412151,0.0106801951,-0.2067343477,0.3369792406,9.9289882704
1520520211795856984,-0.0006534347,-0.0189703254,0.0198501011,-0.3113577387,0.2470518573,9.8998785680
1520520211800873984,0.0000970706,-0.0227638564,0.0219841680,-0.3378142284,0.1787029136,9.9164727469
1520520211805889984,0.0016049067,-0.0230561070,0.0225202363,-0.4027528849,0.1307423543,9.8799629870
1520520211810904984,0.0043599103,-0.0300489811,0.0227322942,-0.3678784212,0.1091551106,9.8540774215
1520520211815919984,0.0081184351,-0.0390847952,0.0242796531,-0.3257885513,0.0851690240,9.9025011773
1520520211820936984,0.0106146205,-0.0501505952,0.0220261415,-0.3426244993,0.1235428288,9.8526554393
1520520211825951984,0.0121034936,-0.0647221446,0.0229943704,-0.3642707181,0.1607178678,9.8446948731
1520520211830967984,0.0166155621,-0.0743418892,0.0250769748,-0.3366116607,0.1775036796,9.8211664069
1520520211835983984,0.0193613723,-0.0874509246,0.0241601643,-0.3101551710,0.1966878658,9.8139173225
1520520211841000984,0.0223688116,-0.0962036623,0.0286871513,-0.2632550302,0.2134721790,9.8041473030
1520520211846014984,0.0248715911,-0.1043643583,0.0297024212,-0.2464190822,0.2326571145,9.7923432832
1520520211851032984,0.0231078340,-0.1084473446,0.0307567487,-0.1983163737,0.2758224234,9.7988058485
1520520211856047984,0.0236087968,-0.1122468014,0.0350556495,-0.2067343477,0.2626325343,9.7768199115
1520520211861063984,0.0228527833,-0.1157524523,0.0382769234,-0.1850881289,0.2962067803,9.7789007668
1520520211866078984,0.0198431760,-0.1131391857,0.0412785367,-0.1995189414,0.2686276745,9.7988245695
1520520211871096984,0.0178359922,-0.1125652171,0.0442627215,-0.1514162329,0.2722213494,9.7913799955
1520520211876111984,0.0118133041,-0.1090833490,0.0488998801,-0.1682521809,0.2554346947,9.8043438206
1520520211881125984,0.0040276155,-0.1058818997,0.0492093484,-0.1862906966,0.2410464145,9.8056955725
1520520211886143984,-0.0020014472,-0.1053058642,0.0508482713,-0.2163548894,0.2602350028,9.8245637927
1520520211891158984,-0.0107967769,-0.1061878343,0.0524812127,-0.2187600248,0.2206635561,9.8362472306
1520520211896174984,-0.0190934645,-0.1085199743,0.0516671922,-0.2007215091,0.2266578533,9.8511736794
1520520211901190984,-0.0273879999,-0.1105665572,0.0530197619,-0.1682521809,0.1918802522,9.8125408032
1520520211906206984,-0.0369383238,-0.1114451805,0.0533013741,-0.1478085298,0.1571035877,9.7658899700
1520520211911222984,-0.0439748243,-0.1120328916,0.0541216338,-0.1610367746,0.1654986010,9.7357947974
1520520211916237984,-0.0507620489,-0.1137845855,0.0543914427,-0.1381879881,0.1451114342,9.7472137196
1520520211921254984,-0.0578041752,-0.1164025187,0.0516790443,-0.1454033943,0.1259257494,9.7287083561
1520520211926270984,-0.0630797335,-0.1146540938,0.0508905463,-0.1429982589,0.1403152472,9.7182116184
1520520211931284984,-0.0673489046,-0.1105676430,0.0476830530,-0.1790752903,0.1666991463,9.7568877951
1520520211936300984,-0.0741361213,-0.1093923798,0.0431052667,-0.1947086706,0.1463149767,9.7535734077
1520520211941318984,-0.0786530708,-0.1023907253,0.0393793792,-0.1862906966,0.1247297934,9.7349182172
1520520211946333984,-0.0839195140,-0.0910134993,0.0337944169,-0.1670496132,0.1666982097,9.7742029038
1520520211951349984,-0.0884351383,-0.0810892584,0.0268442095,-0.1850881289,0.1990764060,9.7452933087
1520520211956364984,-0.0914351877,-0.0673851690,0.0231666527,-0.1357828526,0.2074665489,9.7471295039
1520520211961381984,-0.0966961345,-0.0530991967,0.0194977425,-0.0960981181,0.2170565815,9.7618417537
1520520211966395984,-0.1006957534,-0.0373652791,0.0193547108,-0.1646444777,0.2146636393,9.7590248487
1520520211971412984,-0.1057106822,-0.0274521615,0.0164636253,-0.1538213683,0.2278533410,9.7600687844
1520520211976427984,-0.1074500151,-0.0111273044,0.0136153803,-0.1658470455,0.2746207541,9.8135988527
1520520211981443984,-0.1122068315,0.0016902872,0.0142631556,-0.2067343477,0.2818187811,9.7965576492
1520520211986459984,-0.1147057847,0.0121798741,0.0140773080,-0.2307857020,0.3010069011,9.8130430563
1520520211991476984,-0.1167006426,0.0244208788,0.0128216818,-0.1850881289,0.2878127974,9.8184218467
1520520211996492984,-0.1194491854,0.0337339026,0.0166855971,-0.2392036759,0.2818213099,9.7864143902
1520520212001508984,-0.1206917817,0.0421755489,0.0197284050,-0.2824961136,0.3154006135,9.8007487582
1520520212006524984,-0.1214367043,0.0482921433,0.0205881277,-0.3305988221,0.2950189727,9.7884532557
1520520212011540984,-0.1219275133,0.0561556864,0.0220018139,-0.3678784212,0.2938227358,9.7725472664
1520520212016554984,-0.1196543449,0.0631432453,0.0244858805,-0.3907272078,0.2986210770,9.7634678335
1520520212021571984,-0.1208986544,0.0712978776,0.0259031900,-0.4135759943,0.3106142608,9.7880835592
1520520212026587984,-0.1211394818,0.0791658899,0.0256931341,-0.4472478903,0.3585825002,9.7779052316
1520520212031602984,-0.1198716851,0.0858609420,0.0284473904,-0.4520581611,0.3357992068,9.7744878375
1520520212036619984,-0.1175989126,0.0925571163,0.0309292339,-0.4604761351,0.3190118965,9.7362353931
1520520212041635984,-0.1145791514,0.0940079361,0.0336402076,-0.4436401871,0.2974260576,9.7326061386
1520520212046651984,-0.1133188349,0.0948738408,0.0368910940,-0.4604761351,0.2914316668,9.7153436967
1520520212051666984,-0.1120599689,0.0951591617,0.0393258966,-0.4424376194,0.2542569087,9.6582593166
1520520212056682984,-0.1095436875,0.0951492198,0.0433794178,-0.4676915414,0.2194838033,9.6294854348
1520520212061698984,-0.1030091731,0.0945639116,0.0452566581,-0.4929454634,0.1859098383,9.6355747023
1520520212066713984,-0.0974798971,0.0942710509,0.0465968966,-0.5013634374,0.1391440174,9.6345400979
1520520212071730984,-0.0917027997,0.0907701452,0.0489943980,-0.5638969584,0.1655299771,9.5770158377
1520520212076746984,-0.0849238863,0.0878662425,0.0462541066,-0.5795303387,0.1523406500,9.5818294420
1520520212081760984,-0.0746253820,0.0858371434,0.0437844963,-0.5723149324,0.1727254752,9.5375778626
1520520212086778984,-0.0608052205,0.0855540876,0.0426744199,-0.5554789844,0.2254863426,9.5559568442
1520520212091793984,-0.0494961498,0.0887761313,0.0380785910,-0.5975688544,0.2470741483,9.5644804807
1520520212096809984,-0.0329049149,0.0975452896,0.0302686489,-0.5999739898,0.2974382334,9.5784005060
1520520212101825984,-0.0165678448,0.1019333836,0.0262134697,-0.5530738490,0.3501967593,9.6057840128
1520520212106841984,-0.0029961633,0.1048605582,0.0232344926,-0.5169968176,0.3921638643,9.6879041550
1520520212111857984,0.0120832248,0.1083740064,0.0191749778,-0.5001608697,0.4389290296,9.7237211425
1520520212116871984,0.0238907101,0.1072196516,0.0167092364,-0.4664889737,0.4605109348,9.7570745275
1520520212121888984,0.0374600157,0.1083985190,0.0137169208,-0.4448427549,0.4892886190,9.7498629087
1520520212126905984,0.0429848930,0.1051932699,0.0144938367,-0.4352222132,0.5096732570,9.7788029883
1520520212131919984,0.0477520475,0.0996588346,0.0144427303,-0.3787015306,0.4844869060,9.8003581419
1520520212136936984,0.0474923433,0.0926618653,0.0157425725,-0.2993320616,0.4664936181,9.7914681406
1520520212141952984,0.0447164360,0.0821621981,0.0189142261,-0.2596473271,0.4425077189,9.7597273737
1520520212146968984,0.0399323336,0.0716544590,0.0247950725,-0.2440139468,0.3873460418,9.7538182778
1520520212151984984,0.0346507378,0.0652273632,0.0301668837,-0.2223677280,0.3789503730,9.7187514536
1520520212157000984,0.0273532590,0.0573542121,0.0312025790,-0.1935061029,0.3165928231,9.7568820883
1520520212162016984,0.0160260290,0.0448260743,0.0289636217,-0.1634419100,0.2998025157,9.7356872415
1520520212167031984,0.0072182050,0.0349119123,0.0302571016,-0.1249597432,0.2554313229,9.7016537706
1520520212172047984,-0.0008333468,0.0267463528,0.0315625198,-0.1045160921,0.2626245732,9.6723941697
1520520212177062984,-0.0078764062,0.0200337392,0.0345004620,-0.0696416284,0.2050631168,9.6000579262
1520520212182078984,-0.0129079301,0.0144889082,0.0369024709,-0.0431851387,0.1846756691,9.6033067256
1520520212187095984,-0.0186963850,0.0071976599,0.0384809037,-0.0095132428,0.1726816424,9.5913692379
1520520212192111984,-0.0207047096,0.0080681121,0.0395734904,0.0181458146,0.1391035563,9.5562684445
1520520212197126984,-0.0204482201,0.0115633681,0.0401407925,0.0482100075,0.1438977765,9.5745654440
1520520212202142984,-0.0184313177,0.0165184211,0.0399043052,0.0181458146,0.1139216074,9.5690765841
1520520212207159984,-0.0149001536,0.0267211717,0.0388933955,0.0205509501,0.0911377521,9.6376418847
1520520212212174984,-0.0088496697,0.0401235807,0.0403371856,0.0325766272,0.1055265005,9.6456458097
1520520212217189984,-0.0038060905,0.0547020605,0.0377335464,0.0325766272,0.0983316580,9.6933007279
1520520212222205984,0.0004783154,0.0663707702,0.0334858012,0.0446023043,0.0839410363,9.7675749225
1520520212227222984,0.0047647835,0.0774472413,0.0327507064,0.1071358254,0.0839361660,9.7785876991
1520520212232237984,0.0087984119,0.0870652344,0.0325460548,0.1347948828,0.0839340118,9.7794806267
1520520212237254984,0.0135823732,0.0940610621,0.0323199952,0.1961258361,0.1187043074,9.8125519327
1520520212242269984,0.0213850019,0.1039748304,0.0310283822,0.2478362478,0.1210985609,9.8166948524
1520520212247285984,0.0271763579,0.1124272461,0.0310821170,0.3043569303,0.1438778269,9.7893931864
1520520212252302984,0.0319620363,0.1211735663,0.0300577583,0.3127749043,0.1462754522,9.7881467683
1520520212257317984,0.0400143369,0.1302147363,0.0282179175,0.3115723366,0.1390807033,9.8230298081
1520520212262333984,0.0460581835,0.1410048826,0.0258540572,0.4474624882,0.1318752772,9.8252005846
1520520212267348984,0.0533577323,0.1512127521,0.0234834172,0.4546778944,0.1210824514,9.8437351816
1520520212272365984,0.0588956411,0.1608429909,0.0189472308,0.4210059985,0.1462670228,9.8324169275
1520520212277381984,0.0669482553,0.1722247066,0.0136080781,0.3813212639,0.1102959008,9.8374868503
1520520212282396984,0.0742400221,0.1786533185,0.0079619872,0.3656878837,0.1031022759,9.8237003047
1520520212287413984,0.0815285350,0.1833365369,0.0012203742,0.3428390971,0.1318834256,9.8250567805
1520520212292428984,0.0913237047,0.1848220660,-0.0079852730,0.3500545034,0.0899129488,9.8436217803
1520520212297445984,0.0988548484,0.1828020819,-0.0142373919,0.4210059985,0.0911065633,9.7267156173
1520520212302460984,0.1071335532,0.1761202407,-0.0205264804,0.5039831707,0.0934983816,9.6457176968
1520520212307476984,0.1206905880,0.1697296663,-0.0260115092,0.4823369518,0.0863052249,9.6378003962
1520520212312491984,0.1322368753,0.1612905999,-0.0285323610,0.4534753267,0.0827100515,9.5974097872
1520520212317507984,0.1470474561,0.1525687131,-0.0337669623,0.4041700505,0.0839130320,9.5967263812
1520520212322524984,0.1648680441,0.1429884229,-0.0444247514,0.3368262586,0.0683294514,9.6299370965
1520520212327539984,0.1814387320,0.1363127444,-0.0518114253,0.3103697689,0.1103014268,9.6185322413
1520520212332554984,0.1997642895,0.1270174798,-0.0600330117,0.2670773312,0.1198979219,9.6410250038
1520520212337571984,0.2158249115,0.1189028926,-0.0741935150,0.2273925967,0.1163035914,9.6681440896
1520520212342588984,0.2333929344,0.1119609901,-0.0907828393,0.1841001590,0.1318957887,9.7115495965
1520520212347603984,0.2529777146,0.1049987508,-0.0995300664,0.1949232684,0.1486829117,9.6835364254
1520520212352619984,0.2692935519,0.1000909487,-0.1142076743,0.1648590756,0.1366938490,9.7651908220
1520520212357635984,0.2823449233,0.0966373325,-0.1283270075,0.1047306900,0.1223088469,9.8053030013
1520520212362651984,0.2933879269,0.0943470098,-0.1418926228,0.1179589348,0.1307017996,9.8481653866
1520520212367666984,0.3029210245,0.0900142195,-0.1546593617,0.1432128568,0.1450895178,9.9315799131
1520520212372682984,0.3026490652,0.0813017225,-0.1655474233,0.2033412424,0.1306951497,10.0332773603
1520520212377698984,0.3038882782,0.0719932069,-0.1713023595,0.2550516541,0.1270937011,10.0885604607
1520520212382713984,0.3021132616,0.0609228194,-0.1724657533,0.2779004406,0.1426807470,10.1382950532
1520520212387730984,0.2938020567,0.0483944063,-0.1741692194,0.3115723366,0.1318858607,10.2135171927
1520520212392746984,0.2842350554,0.0341069957,-0.1720960480,0.3404339617,0.0995068215,10.2829964808
1520520212397761984,0.2701454239,0.0206934234,-0.1705488980,0.4161957276,0.0335481976,10.2858098077
1520520212402777984,0.2510315291,0.0075648958,-0.1673669151,0.4306265402,0.0287505120,10.3588890935
1520520212407796984,0.2301569587,-0.0067298590,-0.1641905575,0.4534753267,0.0395409963,10.3458725899
1520520212412809984,0.2070242624,-0.0184030392,-0.1609899916,0.4306265402,0.0611273034,10.4018568477
1520520212417825984,0.1828813998,-0.0335724991,-0.1580847818,0.4246137016,0.0407423845,10.3961245320
1520520212422842984,0.1594927433,-0.0478645963,-0.1562564864,0.4089803213,0.0407436021,10.4206817207
1520520212427857984,0.1351018829,-0.0601181241,-0.1541402167,0.4582855976,0.0419389025,10.3830120375
1520520212432872984,0.1076938134,-0.0717820515,-0.1549899050,0.4871472227,0.0419366546,10.3745961085
1520520212437889984,0.0812908491,-0.0843233809,-0.1544953999,0.4847420873,0.0515299653,10.3641508683
1520520212442904984,0.0571464575,-0.0965607847,-0.1583316066,0.5328447958,0.0791064487,10.3276293087
1520520212447920984,0.0337629133,-0.1038450847,-0.1618608751,0.5869603429,0.0671108297,10.2724935087
1520520212452936984,0.0088695924,-0.1140503765,-0.1629746611,0.6458861608,0.0347294490,10.1847907365
1520520212457952984,-0.0150183098,-0.1227925244,-0.1662435657,0.6903811662,-0.0072439313,10.1251292346
1520520212462967984,-0.0323735832,-0.1312356290,-0.1714162032,0.7132299527,-0.0252328172,10.0819250523
1520520212467984984,-0.0509863191,-0.1405541078,-0.1763226306,0.7108248173,-0.0372240341,10.0168800944
1520520212472999984,-0.0650670511,-0.1428746720,-0.1822662885,0.6675323796,-0.0504112070,10.0405572183
1520520212478016984,-0.0781380127,-0.1419903411,-0.1879168134,0.6362656191,-0.0671967377,10.0664450875
1520520212483031984,-0.0861852794,-0.1405110739,-0.1973598692,0.6338604837,-0.0695948313,10.0432279572
1520520212488047984,-0.0934758308,-0.1358211826,-0.2086736925,0.6158219680,-0.0600003030,10.0259620190
1520520212493062984,-0.0959849771,-0.1276393622,-0.2175347934,0.6013911554,-0.0468086344,9.9784417148
1520520212498079984,-0.1007552404,-0.1188749303,-0.2266577936,0.6025937231,-0.0264233409,9.9249515091
1520520212503095984,-0.1070347943,-0.1118623101,-0.2347091483,0.5821500720,-0.0312183103,9.9762895064
1520520212508112984,-0.1082859096,-0.1036850964,-0.2416787616,0.6158219680,-0.0180303882,9.9236524242
1520520212513125984,-0.1082834318,-0.0966685580,-0.2502828763,0.6711400828,-0.0228312582,9.8429307361
1520520212518142984,-0.1080210853,-0.0867533729,-0.2531837629,0.6591144056,-0.0480122705,9.8477209186
1520520212523159984,-0.1077622553,-0.0782900114,-0.2579895863,0.6470887285,-0.0588035977,9.8083355988
1520520212528175984,-0.1054946656,-0.0721620375,-0.2609231069,0.6579118379,-0.0648001428,9.7454803264
1520520212533189984,-0.1042327573,-0.0672036376,-0.2625109234,0.6591144056,-0.1103675725,9.6444065322
1520520212538206984,-0.1024646407,-0.0584519430,-0.2659645946,0.6374681868,-0.1331495547,9.6190722737
1520520212543221984,-0.0986810330,-0.0470820990,-0.2675081705,0.6062014263,-0.1331471195,9.5670801272
1520520212548237984,-0.0964040304,-0.0348386922,-0.2690422768,0.5989860200,-0.1607267873,9.5416100854
1520520212553253984,-0.0961506145,-0.0313332382,-0.2722626172,0.5520858792,-0.1571257133,9.5118473317
1520520212558268984,-0.0941343668,-0.0249125214,-0.2757345398,0.5232242541,-0.1571234655,9.5098039652
1520520212563284984,-0.0913660691,-0.0193634775,-0.2800261694,0.5484781760,-0.1511297302,9.4921201530
1520520212568302984,-0.0913548449,-0.0091562778,-0.2831949122,0.4847420873,-0.1715101534,9.4381396339
1520520212573317984,-0.0910966344,-0.0024470509,-0.2858497069,0.5027806029,-0.1595201541,9.4309795009
1520520212578333984,-0.0905858901,0.0063070651,-0.2903832280,0.4618933007,-0.1667118122,9.4139523296
1520520212583348984,-0.0905809072,0.0141933866,-0.2973573980,0.4318291079,-0.1115490112,9.3560839687
1520520212588365984,-0.0928375275,0.0214931391,-0.3032496301,0.3704981545,-0.1019511112,9.3287801169
1520520212593380984,-0.0963530138,0.0285075708,-0.3115766647,0.3584724774,-0.0935561916,9.3254025503
1520520212598396984,-0.1016265334,0.0372739910,-0.3215103691,0.3332185554,-0.0635757142,9.3023762439
1520520212603412984,-0.1016237970,0.0425334811,-0.3268812715,0.3584724774,-0.0575819789,9.2951517273
1520520212608428984,-0.1011211915,0.0454606350,-0.3317298002,0.3644853160,-0.0407944813,9.2822932478
1520520212613443984,-0.1033807639,0.0489651044,-0.3349454734,0.4161957276,-0.1127469340,9.3469401521
1520520212618459984,-0.1043913262,0.0451774402,-0.3352430525,0.4077777536,-0.1391273677,9.3412370932
1520520212623476984,-0.1041489542,0.0402312860,-0.3379867707,0.3813212639,-0.1055493754,9.3402997190
1520520212628491984,-0.1034067091,0.0344162741,-0.3426319128,0.3981572119,-0.1607111461,9.3425139257
1520520212633506984,-0.1049215393,0.0300485576,-0.3440151882,0.3656878837,-0.1607086173,9.3718835611
1520520212638523984,-0.1049280040,0.0262649294,-0.3456673637,0.3680930191,-0.1499165408,9.3311745885
1520520212643540984,-0.1049332378,0.0230626133,-0.3467740012,0.3356236908,-0.1607062758,9.3280147172
1520520212648555984,-0.1057039371,0.0119955333,-0.3490214454,0.3187877429,-0.1139384880,9.3966994771
1520520212653571984,-0.1049643345,0.0032623056,-0.3520655430,0.3175851752,-0.1271289390,9.3444275670
1520520212658587984,-0.1037203778,-0.0054765526,-0.3529462069,0.3789161285,-0.1235362944,9.3438271011
1520520212663602984,-0.1032379742,-0.0203369666,-0.3530605177,0.4089803213,-0.0851661424,9.3806856623
1520520212668618984,-0.0997330338,-0.0302433906,-0.3528720908,0.4041700505,-0.0707760826,9.3481784198
1520520212673634984,-0.0954721778,-0.0404489165,-0.3497112823,0.4606907330,-0.0839710293,9.3162632581
1520520212678651984,-0.0927176683,-0.0515379278,-0.3433077920,0.4606907330,-0.1007589952,9.3220903486
1520520212683666984,-0.0892139628,-0.0634891425,-0.3412411055,0.4582855976,-0.0935639654,9.2918909999
1520520212688682984,-0.0834469839,-0.0742739330,-0.3391697271,0.4931600612,-0.1223460517,9.2927417613
1520520212693698984,-0.0771741575,-0.0847766117,-0.3335799625,0.5340473635,-0.1475311850,9.2540175950
1520520212698714984,-0.0726586194,-0.0941151698,-0.3277074925,0.5352499312,-0.1439338574,9.2714345413
1520520212703731984,-0.0673917762,-0.1037375328,-0.3245441048,0.5160088478,-0.1811057120,9.2658473519
1520520212708746984,-0.0601048708,-0.1090007236,-0.3167518243,0.4919574935,-0.1942943834,9.2870129070
1520520212713761984,-0.0530678097,-0.1122199506,-0.3105667909,0.4655010038,-0.2386605186,9.3198537145
1520520212718777984,-0.0465360709,-0.1163084290,-0.3062813145,0.4883497904,-0.1954932429,9.2940220552
1520520212723793984,-0.0417543168,-0.1136957525,-0.3019414402,0.4510701913,-0.1799015139,9.3152883017
1520520212728809984,-0.0372265040,-0.1140013903,-0.2960000546,0.4522727590,-0.2254689436,9.3420503425
1520520212733824984,-0.0337045019,-0.1145980780,-0.2903295711,0.5099960092,-0.2050880521,9.3461171968
1520520212738841984,-0.0319417720,-0.1169510464,-0.2819637000,0.5220216864,-0.1883010228,9.3297137602
1520520212743857984,-0.0284228122,-0.1222208131,-0.2722705974,0.4919574935,-0.1691124345,9.3485819804
1520520212748872984,-0.0271634719,-0.1251567474,-0.2639082391,0.4703112747,-0.1727081699,9.4162005288
1520520212753888984,-0.0256536207,-0.1272118739,-0.2579745914,0.5051857384,-0.1499272180,9.4286224482
1520520212758905984,-0.0236362047,-0.1272343960,-0.2493208565,0.5424653375,-0.1439344194,9.4480101920
1520520212763920984,-0.0231303610,-0.1284157627,-0.2433786726,0.5556935823,-0.1271474837,9.4304329063
1520520212768937984,-0.0231202973,-0.1252294721,-0.2363200253,0.5641115563,-0.1331438414,9.4698697120
1520520212773952984,-0.0210997568,-0.1226280766,-0.2281873745,0.6326579159,-0.1307508992,9.4994159280
1520520212778968984,-0.0203353575,-0.1194429475,-0.2205890356,0.6182271034,-0.1379446178,9.5530220266
1520520212783983984,-0.0215824466,-0.1162549639,-0.2143396924,0.5989860200,-0.1307482767,9.5869044661
1520520212789000984,-0.0200667893,-0.1145242768,-0.2075655069,0.6314553482,-0.1199585417,9.6330636637
1520520212794015984,-0.0167885667,-0.1110482355,-0.1994285204,0.6446835931,-0.1235569933,9.6980184775
1520520212799032984,-0.0145220042,-0.1113562163,-0.1929418425,0.6326579159,-0.0827852823,9.7875808550
1520520212804048984,-0.0122511293,-0.1081661258,-0.1869695793,0.6723426505,-0.0396193178,9.8394489699
1520520212809062984,-0.0132477075,-0.1040973343,-0.1831489467,0.6639246765,0.0023512526,9.8836514487
1520520212814078984,-0.0104760814,-0.1017790153,-0.1779959240,0.6422784577,0.0287340278,9.9942400899
1520520212819094984,-0.0087099995,-0.0985818375,-0.1747281863,0.6819631922,0.0802939753,10.0681807545
1520520212824111984,-0.0092003773,-0.0936467082,-0.1679258130,0.7048119787,0.1438466382,10.1550571800
1520520212829127984,-0.0094445527,-0.0898653637,-0.1654615331,0.7012042756,0.1678297276,10.2015546666
1520520212834142984,-0.0114501958,-0.0878330155,-0.1630073247,0.7072171142,0.2337819826,10.2804576165
1520520212839159984,-0.0142064343,-0.0828849321,-0.1613411229,0.7024068433,0.2205918126,10.3363002093
1520520212844174984,-0.0204772967,-0.0767792449,-0.1572245816,0.7060145464,0.2169941103,10.3211607307
1520520212849190984,-0.0257413289,-0.0668735101,-0.1574097414,0.7048119787,0.2074010806,10.3548839652
1520520212854206984,-0.0310074743,-0.0590096523,-0.1567988251,0.6627221088,0.1990103757,10.3390318122
1520520212859222984,-0.0342613394,-0.0505658800,-0.1548344670,0.6543041348,0.1966127505,10.3658453972
1520520212864237984,-0.0427907196,-0.0406665241,-0.1531197381,0.6074039940,0.1402568034,10.3431139742
1520520212869254984,-0.0480499101,-0.0263863793,-0.1546242811,0.5713269626,0.1138785238,10.3365179877
1520520212874270984,-0.0525515543,-0.0100691611,-0.1550324791,0.5232242541,0.0683149342,10.3602735039
1520520212879285984,-0.0573059047,0.0053745335,-0.1557174255,0.4955651967,0.0611222458,10.3314961374
1520520212884300984,-0.0623094839,0.0231528480,-0.1577368500,0.4270188370,0.0575301631,10.3182211062
1520520212889318984,-0.0693222228,0.0415116871,-0.1592070028,0.4258162693,0.0299500271,10.3415025851
1520520212894333984,-0.0750817685,0.0569549878,-0.1598900823,0.4077777536,0.0203583086,10.3393632278
1520520212899349984,-0.0813444372,0.0729852313,-0.1621910576,0.3729032900,0.0419455523,10.3420059142
1520520212904365984,-0.0853479686,0.0869759408,-0.1642412491,0.3356236908,0.0515415792,10.3725751590
1520520212909381984,-0.0891004247,0.0995039986,-0.1641386556,0.3139774720,0.1043054437,10.3727343991
1520520212914395984,-0.0915990290,0.1091143329,-0.1624373512,0.3356236908,0.0887149323,10.3957817886
1520520212919412984,-0.0925932315,0.1149314316,-0.1586033800,0.3248005814,0.1091011624,10.4121372707
1520520212924428984,-0.0920767360,0.1233737670,-0.1555638391,0.2971415240,0.1150990187,10.4646971183
1520520212929444984,-0.0893066427,0.1271606636,-0.1547284353,0.2297977321,0.1187016850,10.4955648362
1520520212934459984,-0.0857851581,0.1300780726,-0.1555243763,0.1696693465,0.1714685466,10.4763421909
1520520212939475984,-0.0815098201,0.1332886183,-0.1568605861,0.1155537994,0.1522865145,10.4908333553
1520520212944492984,-0.0757310369,0.1362214819,-0.1630716455,0.1047306900,0.1858632893,10.4548794967
1520520212949508984,-0.0661824615,0.1400328897,-0.1703652200,0.0193483823,0.2542209433,10.3975367057
1520520212954524984,-0.0551318052,0.1424003490,-0.1822719906,-0.0455902742,0.2937976349,10.4016166224
1520520212959538984,-0.0453330248,0.1476789759,-0.1933425590,-0.0576159513,0.3465607501,10.4586272758
1520520212964554984,-0.0342789812,0.1523767829,-0.2049609990,-0.0636287899,0.4017216779,10.4609562994
1520520212969571984,-0.0219744221,0.1544606342,-0.2195777852,-0.0407800033,0.4293001281,10.5478678051
1520520212974586984,-0.0106716358,0.1556546410,-0.2285179100,-0.0059055396,0.5108389608,10.5567459950
1520520212979603984,0.0016363457,0.1568490417,-0.2374599016,0.0157406792,0.5911796833,10.6041048604
1520520212984618984,0.0126826857,0.1542549512,-0.2464284598,0.0073227052,0.6451416579,10.6389984941
1520520212989634984,0.0217160318,0.1469855373,-0.2508295733,0.0506151429,0.7218832733,10.6594208656
1520520212994651984,0.0310070514,0.1426220544,-0.2522329178,0.0915024451,0.7230792293,10.6764538836
1520520212999667984,0.0372827437,0.1365003417,-0.2503974494,0.1023255545,0.7302732289,10.7344487198
1520520213004682984,0.0420497609,0.1289174735,-0.2472175666,0.1095409608,0.7470606328,10.7401728385
1520520213009698984,0.0478294066,0.1259935094,-0.2426512519,0.1107435285,0.7542553817,10.7145869504
1520520213014713984,0.0510949192,0.1219015657,-0.2375480705,0.1227692057,0.7326699175,10.6575458942
1520520213019730984,0.0521061284,0.1212966091,-0.2291674608,0.1636565079,0.7146796267,10.6002204086
1520520213024746984,0.0511083544,0.1215642900,-0.2205059021,0.1624539402,0.6990908949,10.5142486624
1520520213029761984,0.0508665900,0.1238741433,-0.2126418197,0.1901129976,0.6787033535,10.4640271349
1520520213034776984,0.0496249071,0.1290930774,-0.2031303642,0.1756821850,0.6751070561,10.4723061112
1520520213039794984,0.0443649520,0.1366436978,-0.1944052941,0.1925181330,0.7038851150,10.4523577291
1520520213044809984,0.0408679190,0.1479873768,-0.1872778664,0.2093540810,0.6631130294,10.3836671225
1520520213049825984,0.0348635706,0.1625309304,-0.1784980421,0.2045438101,0.6475245785,10.3058654992
1520520213054841984,0.0273458896,0.1744579884,-0.1721703383,0.2310002998,0.6223405691,10.3311997111
1520520213059857984,0.0180665215,0.1846367785,-0.1661232518,0.2502413832,0.6199407897,10.3368254887
1520520213064871984,0.0070273168,0.1954027475,-0.1619622734,0.2610644926,0.6067494021,10.3193008466
1520520213069888984,-0.0040171218,0.2029664005,-0.1589079325,0.2983440917,0.5971533753,10.2887316017
1520520213074904984,-0.0208356311,0.2128501240,-0.1525785216,0.3127749043,0.5899574088,10.2665174220
1520520213079920984,-0.0338878258,0.2204042481,-0.1462738961,0.3500545034,0.6115390330,10.2545120776
1520520213084936984,-0.0441833349,0.2259357890,-0.1459419760,0.3704981545,0.6127365812,10.2589604981
1520520213089952984,-0.0605159946,0.2288505190,-0.1485948671,0.3789161285,0.6103376447,10.3007180837
1520520213094967984,-0.0743391003,0.2282652486,-0.1496558270,0.4270188370,0.6415115493,10.3455430929
1520520213099983984,-0.0889179098,0.2250513946,-0.1485710274,0.4727164101,0.6966684497,10.4496374670
1520520213105000984,-0.1047633281,0.2160166422,-0.1502338149,0.4883497904,0.7854036235,10.4726416492
1520520213110016984,-0.1211152998,0.2055313260,-0.1543416974,0.5593012855,0.8405585570,10.5044372920
1520520213115030984,-0.1326925976,0.1935844020,-0.1560346500,0.5869603429,0.9340893559,10.4866447079
1520520213120048984,-0.1465342665,0.1804746960,-0.1590850239,0.6362656191,1.0384107327,10.4535230374
1520520213125062984,-0.1571073844,0.1664826467,-0.1586310378,0.6627221088,1.1067596763,10.4961982001
1520520213130078984,-0.1654181111,0.1521964568,-0.1568307459,0.7072171142,1.1463278448,10.4771322216
1520520213135093984,-0.1702132024,0.1373347037,-0.1572058014,0.7420915778,1.1787019201,10.4837340665
1520520213140110984,-0.1755147609,0.1204367041,-0.1589482145,0.7950045572,1.2026806075,10.4285748914
1520520213145126984,-0.1813164589,0.1032376535,-0.1571748206,0.8599432137,1.2542385881,10.3953525060
1520520213150142984,-0.1833495566,0.0845795150,-0.1540668136,0.8996279482,1.2458415144,10.3426779466
1520520213155158984,-0.1851321474,0.0653387058,-0.1509637194,0.8984253805,1.2494390293,10.2380931878
1520520213160174984,-0.1876683759,0.0443405529,-0.1446260128,0.9501357922,1.2110625084,10.0714407037
1520520213165189984,-0.1881895054,0.0271326434,-0.1388042317,0.9537434953,1.1487069254,9.9622248625
1520520213170206984,-0.1887087453,0.0105038608,-0.1316252749,0.8984253805,1.0767628083,9.8152411733
1520520213175220984,-0.1889788817,-0.0061175390,-0.1271522438,0.8635509168,1.0060162395,9.6622466090
1520520213180238984,-0.1859783541,-0.0215794051,-0.1199709288,0.8010173958,0.9196829993,9.5548600766
1520520213185253984,-0.1867476539,-0.0347000170,-0.1170935626,0.7024068433,0.8153654626,9.4443558041
1520520213190270984,-0.1850095481,-0.0501427077,-0.1172146532,0.5881629106,0.7182439860,9.3421316890
1520520213195285984,-0.1845257331,-0.0626662180,-0.1194755465,0.5172114155,0.6019328909,9.2836663716
1520520213200301984,-0.1870564927,-0.0746088692,-0.1214558470,0.4618933007,0.5479758802,9.1517730137
1520520213205317984,-0.1878287759,-0.0868414873,-0.1237121836,0.4270188370,0.5012121198,9.0347815252
1520520213210333984,-0.1898505083,-0.0917805148,-0.1294277061,0.3729032900,0.4784326665,8.9830339922
1520520213215348984,-0.1893489181,-0.0908988800,-0.1321274292,0.3320159877,0.4652453062,8.9055811819
1520520213220365984,-0.1901097577,-0.0929250269,-0.1372819627,0.3103697689,0.4148830943,8.8686523787
1520520213225381984,-0.1898619244,-0.0917426364,-0.1434960927,0.3115723366,0.4112855794,8.8070505521
1520520213230396984,-0.1903657884,-0.0891043471,-0.1494271612,0.2706850343,0.3885050958,8.7551742635
1520520213235412984,-0.1891095490,-0.0858833280,-0.1550865047,0.2730901698,0.3513315553,8.7028906250
1520520213240428984,-0.1870996327,-0.0826612850,-0.1610177942,0.2803055761,0.3453352913,8.6970155215
1520520213245444984,-0.1833278921,-0.0756425413,-0.1698994556,0.2574567895,0.3381422283,8.7158392369
1520520213250460984,-0.1798039337,-0.0671720724,-0.1768757135,0.2574567895,0.3261508240,8.7030673468
1520520213255475984,-0.1777926531,-0.0627837630,-0.1830686566,0.2598619249,0.3117609516,8.6821393776
1520520213260490984,-0.1752826011,-0.0607241475,-0.1900919556,0.2718876021,0.3033660321,8.7052733915
1520520213265506984,-0.1705066414,-0.0575068490,-0.1938640119,0.3175851752,0.3201504389,8.7303793956
1520520213270524984,-0.1644794604,-0.0557350544,-0.2017077057,0.3548647743,0.3129526929,8.7323478428
1520520213275538984,-0.1589562924,-0.0577638389,-0.2049800860,0.3777135608,0.2961629475,8.7786275756
1520520213280555984,-0.1544317688,-0.0565950717,-0.2055206865,0.3933469411,0.3285385213,8.7737952619
1520520213285571984,-0.1453898918,-0.0592096175,-0.2071807717,0.3789161285,0.3057559772,8.7797686598
1520520213290587984,-0.1350882276,-0.0618345975,-0.2047850020,0.4101828891,0.3009569803,8.7736582859
1520520213295603984,-0.1237805762,-0.0638764145,-0.2023866531,0.3789161285,0.2985611346,8.7646678044
1520520213300618984,-0.1152434962,-0.0679473514,-0.2043274661,0.3753084254,0.2877691518,8.7670377316
1520520213305634984,-0.1044417395,-0.0714419174,-0.2035625746,0.3476493680,0.2805764634,8.7893946990
1520520213310651984,-0.0946450095,-0.0775717214,-0.1982165437,0.3608776128,0.2493977822,8.7916206341
1520520213315665984,-0.0828374028,-0.0825315574,-0.1942180837,0.3512570711,0.2266148634,8.7708179009
1520520213320682984,-0.0705281236,-0.0886589199,-0.1894178118,0.3428390971,0.2386069233,8.7976174538
1520520213325698984,-0.0584685633,-0.0950843213,-0.1821843832,0.3704981545,0.2434013308,8.8415050304
1520520213330714984,-0.0441422132,-0.0988914748,-0.1730413261,0.3404339617,0.2458019531,8.8638760533
1520520213335730984,-0.0308200508,-0.1035804601,-0.1611976123,0.3765109931,0.2002318072,8.8682179123
1520520213340744984,-0.0187539434,-0.1082713945,-0.1488104732,0.3692955868,0.1918383862,8.8775934796
1520520213345761984,-0.0059342885,-0.1120827809,-0.1383118863,0.3524596388,0.1894414166,8.8940297045
1520520213350778984,0.0028651967,-0.1170685650,-0.1251092651,0.3404339617,0.1714552469,8.8999750149
1520520213355793984,0.0124190214,-0.1205920322,-0.1137907500,0.3717007222,0.1570631266,8.9496569055
1520520213360810984,0.0234834971,-0.1226608996,-0.1013817362,0.3897392379,0.1678539855,8.9994429957
1520520213365824984,0.0307711906,-0.1288047999,-0.0911612119,0.3873341025,0.1954344026,9.0412766933
1520520213370841984,0.0360609367,-0.1285514115,-0.0762887658,0.4089803213,0.1882378742,9.0770994809
1520520213375856984,0.0395944530,-0.1253812249,-0.0627435512,0.4113854568,0.2086230741,9.1700277084
1520520213380873984,0.0416175849,-0.1224957292,-0.0519032183,0.4366393787,0.2601841454,9.1941366437
1520520213385888984,0.0426353451,-0.1199027403,-0.0407926957,0.4173982953,0.2961598567,9.2303153070
1520520213390903984,0.0441582160,-0.1135128145,-0.0329007571,0.4173982953,0.3021555588,9.2628494910
1520520213395920984,0.0414119980,-0.1050855991,-0.0247147768,0.3981572119,0.2961613552,9.3002312251
1520520213400936984,0.0379192265,-0.0928779646,-0.0137930373,0.3993597796,0.3045552445,9.3862099873
1520520213405952984,0.0346730924,-0.0832890502,-0.0042445017,0.4137905922,0.3177446653,9.4592717330
1520520213410968984,0.0294146350,-0.0739872090,0.0034117233,0.4210059985,0.3333329288,9.4894020441
1520520213415983984,0.0231516840,-0.0649807882,0.0124203216,0.3933469411,0.3225428192,9.5245461030
1520520213420999984,0.0176438604,-0.0553927600,0.0219730577,0.3861315348,0.2374044111,9.5851308421
1520520213426016984,0.0096165839,-0.0495893445,0.0298782855,0.3993597796,0.2158188532,9.6373196125
1520520213431031984,0.0020918187,-0.0432000493,0.0367048425,0.3921443734,0.2074254322,9.6815594985
1520520213436047984,-0.0066919066,-0.0394373494,0.0448664548,0.4186008630,0.1822414228,9.7405958850
1520520213441062984,-0.0162310690,-0.0371333242,0.0535594436,0.3548647743,0.1678567017,9.7516895807
1520520213446079984,-0.0275327576,-0.0383309732,0.0638522979,0.4210059985,0.1534618653,9.8068427445
1520520213451094984,-0.0363212423,-0.0409918446,0.0768348284,0.4234111339,0.1846393290,9.8555989776
1520520213456111984,-0.0461170314,-0.0442315083,0.0881915043,0.4594881653,0.1438657448,9.8936383339
1520520213461126984,-0.0549096051,-0.0489277008,0.0995351979,0.4787292487,0.1750418973,9.9352578326
1520520213466141984,-0.0641998092,-0.0515916828,0.1136008455,0.5087934415,0.1714421345,9.9431037218
1520520213471156984,-0.0714793601,-0.0545484470,0.1284721739,0.4943626290,0.1702441180,9.9827582463
1520520213476172984,-0.0790077909,-0.0560498438,0.1438961762,0.5051857384,0.1702432750,9.9745178931
1520520213481189984,-0.0872893693,-0.0566759256,0.1587871562,0.5292370926,0.2242027209,10.0137440662
1520520213486206984,-0.0927992276,-0.0526424141,0.1750613010,0.5304396603,0.2397914527,9.9788528411
1520520213491222984,-0.1000736701,-0.0500548596,0.1869988632,0.5532884469,0.2373913924,10.0088485265
1520520213496238984,-0.1030734843,-0.0468886897,0.2010973044,0.5761372334,0.2481818766,9.9749134317
1520520213501253984,-0.1088371426,-0.0422615811,0.2133181737,0.5869603429,0.2158042423,9.9643803628
1520520213506269984,-0.1148525388,-0.0376331141,0.2249984180,0.6266450774,0.2181994323,9.9732889088
1520520213511285984,-0.1188605749,-0.0332865029,0.2334261546,0.6627221088,0.1738284269,9.9880888941
1520520213516300984,-0.1226191194,-0.0315680814,0.2439977839,0.6831657599,0.1546405879,10.0274215120
1520520213521317984,-0.1256262765,-0.0321826260,0.2553618660,0.7012042756,0.1534400425,9.9854099232
1520520213526334984,-0.1248676834,-0.0327833104,0.2621196671,0.6795580568,0.1282597795,9.9263758286
1520520213531347984,-0.1253629852,-0.0301734299,0.2667398885,0.6711400828,0.1762260521,9.9484917256
1520520213536365984,-0.1241021825,-0.0281383450,0.2686469378,0.6891785985,0.2038048769,9.8936684891
1520520213541380984,-0.1173095477,-0.0228922221,0.2692154436,0.6699375151,0.2289883244,9.9472898358
1520520213546396984,-0.1047350169,-0.0164797534,0.2703231989,0.6951914370,0.2649605702,9.9458468055
1520520213551412984,-0.0961791504,-0.0065635045,0.2682185480,0.6915837339,0.3333118553,9.9458152683
1520520213556427984,-0.0838526527,0.0059846946,0.2631508992,0.7324710361,0.3740794453,10.0011604486
1520520213561443984,-0.0642355878,0.0196969166,0.2597018832,0.7084196819,0.3800770206,10.0060372789
1520520213566459984,-0.0436142019,0.0348759245,0.2527450190,0.7000017079,0.3992639230,10.1013963091
1520520213571476984,-0.0212384248,0.0491931230,0.2414494842,0.7529146872,0.4196451892,10.1717521891
1520520213576491984,0.0021480872,0.0661266202,0.2326070033,0.8010173958,0.4412259704,10.1712629387
1520520213581506984,0.0267885412,0.0810201895,0.2240171731,0.7685480675,0.4903932566,10.1982603432
1520520213586523984,0.0531859778,0.0953360496,0.2137963543,0.8202584792,0.5419522674,10.1814367289
1520520213591538984,0.0810907644,0.1081904787,0.2054554410,0.8298790209,0.5755274500,10.1534188920
1520520213596555984,0.1062284489,0.1192969745,0.1965652313,0.8767791617,0.5947100440,10.1506193975
1520520213601570984,0.1361474485,0.1330176037,0.1914738043,0.9152613285,0.5599319746,10.1723594816
1520520213606587984,0.1650589593,0.1429403706,0.1898724406,0.9705794433,0.5299491557,10.1346616760
1520520213611602984,0.1894442293,0.1499438779,0.1896099766,0.9741871464,0.4939746620,10.0637708598
1520520213616617984,0.2123231529,0.1560638997,0.1925901944,1.0018462038,0.4615957164,9.9670752675
1520520213621634984,0.2286612267,0.1581070773,0.1936576026,1.0222898549,0.4148276476,9.9274089913
1520520213626650984,0.2404710798,0.1557740726,0.1960527950,1.0138718810,0.3860489331,9.8508174898
1520520213631665984,0.2459935343,0.1496498792,0.1987013012,1.0547591832,0.2877162339,9.7284902886
1520520213636682984,0.2462432453,0.1470209610,0.2011157398,1.0715951312,0.2397493058,9.6086723641
1520520213641698984,0.2432207477,0.1403106511,0.2037756685,1.0559617509,0.1594081150,9.5333635185
1520520213646713984,0.2313953540,0.1274749065,0.2074874313,1.1293183814,0.0994453805,9.4641414837
1520520213651729984,0.2142903993,0.1137665828,0.2098495965,1.1425466262,0.0562752950,9.3420297091
1520520213656745984,0.1966866301,0.1026797946,0.2125032489,1.1209004074,0.0071122236,9.2493168267
1520520213661760984,0.1758123262,0.0895549485,0.2140652234,1.0667848603,-0.0468448808,9.2022482724
1520520213666775984,0.1544339311,0.0761421631,0.2142731789,1.0451386415,-0.0768217055,9.1234624080
1520520213671793984,0.1348151609,0.0650698842,0.2112491012,1.0427335061,-0.0804189395,9.0804899998
1520520213676809984,0.1149516076,0.0604152509,0.2055689392,1.0307078289,-0.0732231603,9.0585192992
1520520213681824984,0.0998650256,0.0595599566,0.1963917128,1.0427335061,-0.0636309735,9.0456093104
1520520213686840984,0.0883072318,0.0671591058,0.1861902383,0.9910230944,-0.0276527334,9.0193482367
1520520213691856984,0.0792638378,0.0770961431,0.1738375140,0.9946307975,0.0071220578,9.0622785370
1520520213696872984,0.0765043689,0.0890797041,0.1598654079,1.0715951312,0.0694713656,9.1346836769
1520520213701888984,0.0772645813,0.1028158644,0.1448179225,1.0896336469,0.1258295606,9.1937224838
1520520213706903984,0.0802869692,0.1177220911,0.1284223996,1.1425466262,0.1701936353,9.2849735681
1520520213711920984,0.0875827074,0.1314549838,0.1155271466,1.1605851419,0.2133612856,9.3858624201
1520520213716935984,0.0913493084,0.1376126856,0.1017689898,1.2038775796,0.2733149350,9.5062455423
1520520213721952984,0.0976253811,0.1423195485,0.0861012292,1.2339417724,0.3224773509,9.5523907312
1520520213726968984,0.1046513907,0.1441128614,0.0704098375,1.2820444809,0.3404607108,9.6355793535
1520520213731982984,0.1119206426,0.1380301494,0.0579045065,1.3072984029,0.3692381141,9.6806290974
1520520213737000984,0.1181825900,0.1313686450,0.0437733209,1.3145138092,0.4136057478,9.7107313443
1520520213742015984,0.1287147200,0.1212027305,0.0331246206,1.3193240800,0.4603718497,9.7559625341
1520520213747031984,0.1334586618,0.1049154765,0.0224399701,1.3830601688,0.4603668857,9.7739364694
1520520213752046984,0.1389517995,0.0877660191,0.0074185159,1.3938832782,0.4435780769,9.7866310781
1520520213757063984,0.1444484067,0.0708977482,-0.0038130727,1.4010986845,0.4495732170,9.8423379109
1520520213762078984,0.1516970215,0.0484924036,-0.0145490752,1.4083140908,0.4411786721,9.8678430329
1520520213767093984,0.1586921813,0.0243379250,-0.0250274036,1.4636322056,0.4615597509,9.8696090095
1520520213772111984,0.1651864135,0.0007631048,-0.0344181688,1.4359731482,0.4219902711,9.8338903514
1520520213777126984,0.1714293469,-0.0228118139,-0.0438084672,1.4035038200,0.4004082723,9.8516595953
1520520213782140984,0.1756646575,-0.0458113070,-0.0507556726,1.4431885545,0.3956086199,9.8524401498
1520520213787158984,0.1851836259,-0.0629759430,-0.0595620388,1.4431885545,0.3932103390,9.8942796708
1520520213792173984,0.1899333267,-0.0766480207,-0.0675212226,1.4203397679,0.3848181356,9.8689430852
1520520213797190984,0.1966975503,-0.0885768309,-0.0733064344,1.4119217939,0.3680308253,9.8190692014
1520520213802205984,0.2006999095,-0.0975877799,-0.0809581027,1.3890730074,0.3584394814,9.8785702938
1520520213807221984,0.2052155065,-0.1013652654,-0.0842419546,1.4191372002,0.3284586294,9.9003876360
1520520213812238984,0.2052105432,-0.1019341943,-0.0893867728,1.3962884137,0.3296595493,9.9099060144
1520520213817252984,0.2029416010,-0.1048379992,-0.0934629916,1.4131243617,0.3332556594,9.9167114993
1520520213822268984,0.1999297512,-0.1033880854,-0.0912819083,1.4383782836,0.3716261860,9.9815083357
1520520213827284984,0.1959103343,-0.1022233942,-0.0915360943,1.4467962576,0.3572358453,9.9767918566
1520520213832299984,0.1853615425,-0.0996123529,-0.0887910252,1.4576193670,0.3764212492,10.0545314465
1520520213837317984,0.1740610968,-0.0958382541,-0.0852240259,1.4684424765,0.4171911806,10.1020342456
1520520213842333984,0.1630107619,-0.0929382105,-0.0816641625,1.4540116639,0.4495690960,10.1160888616
1520520213847348984,0.1484476498,-0.0880085947,-0.0748356527,1.4804681536,0.4543635972,10.1135023851
1520520213852363984,0.1331305980,-0.0827864330,-0.0685446115,1.4756578827,0.4963338866,10.1193189982
1520520213857380984,0.1173134066,-0.0778653222,-0.0587377632,1.4876835599,0.4975320904,10.1319843618
1520520213862396984,0.0997359865,-0.0711849386,-0.0532430437,1.5021143724,0.5107215112,10.1852896603
1520520213867411984,0.0834106188,-0.0671236097,-0.0488528492,1.5393939715,0.5466928204,10.1546759806
1520520213872427984,0.0628127710,-0.0648188176,-0.0420331458,1.5682555966,0.5466905726,10.1985565295
1520520213877444984,0.0414583021,-0.0633833755,-0.0371125327,1.5345837007,0.5670785823,10.1837565209
1520520213882458984,0.0221108366,-0.0642774935,-0.0324839841,1.5333811330,0.5802692206,10.1256481655
1520520213887475984,0.0027720352,-0.0599317890,-0.0259215986,1.5502170809,0.5442936966,10.1115736474
1520520213892492984,-0.0175744196,-0.0552856242,-0.0228722198,1.5658504612,0.5526864620,10.1532504787
1520520213897507984,-0.0364111056,-0.0506454245,-0.0173907283,1.5502170809,0.4687478500,10.0860801488
1520520213902523984,-0.0544967059,-0.0462883013,-0.0148888648,1.5550273518,0.4651500541,10.0871989805
1520520213907538984,-0.0730813403,-0.0393089142,-0.0123660602,1.5850915446,0.4891305210,10.0613158004
1520520213912554984,-0.0889024364,-0.0332040546,-0.0093139670,1.5742684352,0.4183820790,10.0452201215
1520520213917570984,-0.1034709940,-0.0285490694,-0.0087102359,1.5959146540,0.4171812527,10.0554698954
1520520213922586984,-0.1155166212,-0.0169013279,-0.0075167262,1.5682555966,0.3788109133,9.9837236054
1520520213927602984,-0.1293272286,-0.0069909279,-0.0106620222,1.5345837007,0.3908049400,10.0049582448
1520520213932617984,-0.1368561532,0.0038026430,-0.0162472302,1.5213554558,0.3752171448,10.0190479293
1520520213937633984,-0.1436290252,0.0163455449,-0.0220910457,1.5141400495,0.3524340387,9.9587088914
1520520213942650984,-0.1483944938,0.0283137496,-0.0306485002,1.5225580235,0.3536325235,9.9865172416
1520520213947666984,-0.1531611504,0.0394078008,-0.0392126238,1.5574324872,0.3296469989,9.9652825906
1520520213952681984,-0.1551640922,0.0499194375,-0.0475157818,1.5658504612,0.3260489220,9.9326641325
1520520213957698984,-0.1569161311,0.0601397881,-0.0558216295,1.5802812738,0.3140563938,9.9476432366
1520520213962713984,-0.1586664529,0.0721106312,-0.0649257764,1.5983197895,0.3260463932,9.9242130883
1520520213967729984,-0.1551454818,0.0800056153,-0.0746119395,1.5886992477,0.2888737893,9.9162079706
1520520213972745984,-0.1541391691,0.0873197596,-0.0853800650,1.6211685760,0.2768798563,9.9077686198
1520520213977760984,-0.1506154303,0.0957909569,-0.0926268689,1.6392070917,0.2445016599,9.8588145700
1520520213982776984,-0.1463467217,0.0993161969,-0.1026183243,1.6584481751,0.2277121955,9.8284279170
1520520213987793984,-0.1410658708,0.1063311608,-0.1098795106,1.6271814146,0.2001344009,9.7648412258
1520520213992808984,-0.1330248258,0.1098484080,-0.1163608703,1.6175608729,0.1833471842,9.7661133810
1520520213997824984,-0.1267458167,0.1124966400,-0.1250099992,1.6211685760,0.1365804267,9.7056923844
1520520214002840984,-0.1177001017,0.1166014207,-0.1331120550,1.6163583051,0.1329833801,9.7162020082
1520520214007856984,-0.1071552617,0.1140034911,-0.1407269502,1.6380045240,0.1149945879,9.7125224255
1520520214012872984,-0.0978648458,0.1137397877,-0.1496744566,1.6476250657,0.0970067322,9.7043113174
1520520214017887984,-0.0880767093,0.1123216695,-0.1626899772,1.6572456074,0.1018025447,9.7146722952
1520520214022904984,-0.0797971185,0.1085638716,-0.1727444774,1.6512327688,0.0934090300,9.7007932784
1520520214027920984,-0.0705117640,0.1039264866,-0.1806431465,1.7053483159,0.0706211473,9.6863430409
1520520214032935984,-0.0592116161,0.1036657560,-0.1904060244,1.6933226388,0.0730203647,9.6887820406
1520520214037951984,-0.0491731570,0.0984458973,-0.1983105398,1.7306022379,0.0514329336,9.6721702166
1520520214042968984,-0.0424058951,0.0897266874,-0.2056945731,1.7618689984,0.0646210431,9.6730151664
1520520214047983984,-0.0338710067,0.0871265133,-0.2127646427,1.7486407536,0.0346435628,9.7243074895
1520520214052998984,-0.0271028235,0.0781115483,-0.2185276237,1.7498433213,0.0334443287,9.6929190670
1520520214058015984,-0.0195771841,0.0702558610,-0.2218481995,1.7402227796,0.0190553929,9.7511339372
1520520214063029984,-0.0150691104,0.0609420695,-0.2251742900,1.7017406128,0.0214566709,9.7422090087
1520520214068046984,-0.0120698412,0.0510456466,-0.2287725722,1.7366150764,0.0634238696,9.6930185891
1520520214073063984,-0.0098274598,0.0391099651,-0.2326555618,1.7330073733,0.0646232910,9.6918903910
1520520214078078984,-0.0058229953,0.0292139361,-0.2362557109,1.6957277742,0.0742193178,9.7096760524
1520520214083093984,-0.0025708865,0.0207759912,-0.2403844362,1.6837020971,0.0574322885,9.7167823374
1520520214088109984,-0.0000727644,0.0114599552,-0.2431657011,1.6909175033,0.0550334457,9.6934715667
1520520214093126984,0.0061986233,0.0047671283,-0.2456634132,1.7041457482,0.0778160835,9.6607805629
1520520214098142984,0.0097123180,0.0009783225,-0.2448872098,1.6668661491,0.0850138295,9.6622985475
1520520214103157984,0.0139787684,-0.0025137043,-0.2460040047,1.6488276334,0.0898117960,9.6264429835
1520520214108174984,0.0177407746,-0.0068778964,-0.2479381731,1.6416122271,0.1101977452,9.6416012064
1520520214113187984,0.0194984982,-0.0095069523,-0.2452559889,1.6163583051,0.1042040099,9.6848521856
1520520214118206984,0.0227585654,-0.0138735265,-0.2463775862,1.6584481751,0.1293826807,9.6902286723
1520520214123220984,0.0242602895,-0.0173651795,-0.2480303389,1.6536379042,0.1449718809,9.6426123890
1520520214128237984,0.0292893868,-0.0162027713,-0.2461369598,1.6536379042,0.1857426553,9.6495454952
1520520214133251984,0.0307986695,-0.0173779167,-0.2423610099,1.6548404720,0.1917382637,9.6588250951
1520520214138268984,0.0305494367,-0.0165067753,-0.2412716904,1.6584481751,0.1713525956,9.6495127070
1520520214143284984,0.0297969868,-0.0173899655,-0.2380304087,1.6632584460,0.2145212762,9.7284495795
1520520214148299984,0.0277910341,-0.0162346846,-0.2345006859,1.7125637222,0.2229114191,9.7163400472
1520520214153316984,0.0285510817,-0.0147913068,-0.2293505987,1.7233868316,0.2217114357,9.7150737271
1520520214158332984,0.0265475008,-0.0133511973,-0.2233837397,1.7053483159,0.2121197172,9.7536094082
1520520214163347984,0.0222799919,-0.0116118482,-0.2206570080,1.7017406128,0.1941328918,9.7769049425
1520520214168364984,0.0195208013,-0.0104590480,-0.2163142473,1.6800943939,0.2109225437,9.7503699518
1520520214173379984,0.0157555333,-0.0107672064,-0.2106280058,1.6969303419,0.2385014621,9.7606384818
1520520214178395984,0.0109849406,-0.0101972344,-0.2065565034,1.7029431805,0.2504923981,9.7501089676
1520520214183410984,0.0059636214,-0.0090438635,-0.2027506341,1.7306022379,0.2480919631,9.7184642032
1520520214188427984,0.0001895035,-0.0078944300,-0.1975906351,1.7077534513,0.2540894447,9.7151943207
1520520214193443984,-0.0076023049,-0.0108193402,-0.1946223926,1.7546535921,0.2588823537,9.7356517373
1520520214198459984,-0.0126308415,-0.0157886864,-0.1895104786,1.7474381859,0.2636794773,9.7322308584
1520520214203475984,-0.0156516259,-0.0222119824,-0.1852250515,1.7979460298,0.2732686670,9.7073248683
1520520214208490984,-0.0214348510,-0.0277643931,-0.1801161834,1.8171871132,0.2552800621,9.6688043770
1520520214213505984,-0.0257046102,-0.0301153538,-0.1733623864,1.8183896809,0.2600765301,9.6873822979
1520520214218521984,-0.0297225845,-0.0312970358,-0.1679528933,1.8111742746,0.2265011602,9.6386752236
1520520214223539984,-0.0334918553,-0.0342261981,-0.1628277512,1.8003511652,0.2372942670,9.6166893099
1520520214228553984,-0.0395304681,-0.0418140284,-0.1593572535,1.8532641446,0.2300953034,9.6696399254
1520520214233569984,-0.0427984977,-0.0429823033,-0.1588189866,1.8713026603,0.2145050730,9.6473988158
1520520214238586984,-0.0460659588,-0.0450305592,-0.1561230218,1.8941514468,0.2324903998,9.6425103038
1520520214243601984,-0.0470688724,-0.0456239201,-0.1523379586,1.8773154989,0.2228985877,9.5950356272
1520520214248618984,-0.0490788710,-0.0467968017,-0.1499082041,1.8400358998,0.1965204018,9.6070456490
1520520214253633984,-0.0495784813,-0.0462215139,-0.1471973655,1.8328204935,0.2300968956,9.6024345620
1520520214258649984,-0.0490755740,-0.0453442497,-0.1482738133,1.8773154989,0.2360891323,9.6124549238
1520520214263664984,-0.0470639092,-0.0450549913,-0.1471931404,1.8701000926,0.2169034475,9.5648959614
1520520214268681984,-0.0432916119,-0.0433066641,-0.1466457109,1.8761129311,0.2300935239,9.5717974372
1520520214273697984,-0.0437891091,-0.0406894993,-0.1447309484,1.8773154989,0.2109071834,9.5787773053
1520520214278713984,-0.0420311190,-0.0421486465,-0.1436631473,1.9314310459,0.2109029687,9.5515212668
1520520214283728984,-0.0342397144,-0.0424420779,-0.1417860176,1.9458618585,0.2252915299,9.5513667740
1520520214288744984,-0.0304712905,-0.0441932788,-0.1401830816,1.9182028011,0.2396833691,9.5516219583
1520520214293761984,-0.0251915570,-0.0444920654,-0.1366780092,1.9735209159,0.2660601501,9.5638413837
1520520214298776984,-0.0181520300,-0.0450851894,-0.1318256975,1.9699132128,0.3008355034,9.5940583308
1520520214303792984,-0.0131217880,-0.0427557863,-0.1304645178,1.9482669939,0.2912440658,9.5315226030
1520520214308807984,-0.0063344811,-0.0430532537,-0.1272327917,1.9639003742,0.2780523036,9.5743826263
1520520214313823984,-0.0000461219,-0.0413141400,-0.1229023869,1.9987748379,0.2696556045,9.6100778277
1520520214318839984,0.0052335293,-0.0395637653,-0.1228988496,1.9939645670,0.2876430855,9.6310256990
1520520214323855984,0.0087597615,-0.0346132205,-0.1212443159,1.9723183482,0.2708568054,9.6114963135
1520520214328871984,0.0142925149,-0.0316979377,-0.1209618070,2.0132056504,0.2840441657,9.6633819568
1520520214333887984,0.0163036975,-0.0311143810,-0.1209610946,2.0059902441,0.2960361319,9.6890076607
1520520214338903984,0.0168098157,-0.0281988819,-0.1214808890,2.0083953796,0.2828453999,9.6401870673
1520520214343919984,0.0178182649,-0.0264530947,-0.1203872338,2.0577006558,0.2960321045,9.6141271302
1520520214348934984,0.0180689051,-0.0264508109,-0.1211993382,2.0625109267,0.2732480618,9.6687232933
1520520214353951984,0.0158065492,-0.0293764687,-0.1171591801,2.0889674163,0.2768434225,9.6649758422
1520520214358967984,0.0130391806,-0.0322943107,-0.1160940935,2.1154239060,0.2792396429,9.6693645681
1520520214363981984,0.0127845377,-0.0349175984,-0.1158430886,2.1046007966,0.2528593965,9.6392798962
1520520214368999984,0.0085128966,-0.0349207290,-0.1152940625,2.1166264737,0.2444644769,9.6461438948
1520520214374015984,0.0072596956,-0.0349321477,-0.1112335405,2.1322598540,0.2096881871,9.6274313366
1520520214379029984,0.0029893287,-0.0346468075,-0.1096001077,2.1250444477,0.2420655405,9.6495507299
1520520214384045984,-0.0017850393,-0.0337716109,-0.1106667543,2.1033982289,0.2408680859,9.6160604156
1520520214389062984,-0.0058047660,-0.0334839869,-0.1098454260,2.0637134944,0.2360746150,9.6420185268
1520520214394078984,-0.0093162653,-0.0297024655,-0.1079161704,2.0637134944,0.2540617214,9.6199202516
1520520214399093984,-0.0148431694,-0.0291247762,-0.1068192728,2.0601057912,0.2672525470,9.6559689666
1520520214404110984,-0.0176032303,-0.0250421052,-0.1084062910,2.0396621401,0.2720507009,9.6457039796
1520520214409125984,-0.0226222991,-0.0197984244,-0.1086274869,2.0468775464,0.2480673305,9.6921428943
1520520214414140984,-0.0299023165,-0.0166069763,-0.1045313095,2.0228261921,0.2540649058,9.6389125268
1520520214419157984,-0.0336629192,-0.0128328376,-0.0998961284,2.0035851087,0.2684560894,9.6344371998
1520520214424173984,-0.0376815011,-0.0113782187,-0.0996069995,2.0204210567,0.2684547782,9.6296247532
1520520214429189984,-0.0406900930,-0.0067194330,-0.0987541917,1.9446592908,0.2552701341,9.6594286333
1520520214434204984,-0.0482218835,-0.0003068280,-0.1005851034,1.9687106450,0.2360820142,9.6615375295
1520520214439221984,-0.0522340399,0.0066877391,-0.1016064654,1.9651029419,0.2372814356,9.6081128535
1520520214444237984,-0.0577569805,0.0116427521,-0.1029111345,1.9470644262,0.2456768234,9.6640631538
1520520214449252984,-0.0615251770,0.0163201817,-0.1090911199,1.9819388899,0.2516698094,9.6637178604
1520520214454268984,-0.0655386075,0.0230262780,-0.1111968885,2.0011799733,0.2552657321,9.6902563825
1520520214459284984,-0.0677956277,0.0285711675,-0.1146675460,2.0144082181,0.2708535274,9.7168417364
1520520214464298984,-0.0720592593,0.0352735232,-0.1154201185,2.0023825410,0.2516682172,9.7344096557
1520520214469316984,-0.0765791138,0.0396505316,-0.1183543760,2.0276364630,0.2768481992,9.7434364450
1520520214474331984,-0.0778312954,0.0431481105,-0.1188664572,2.0204210567,0.2648573569,9.6981947545
1520520214479347984,-0.0820986671,0.0469358925,-0.1193707146,1.9879517284,0.2948383963,9.7972637937
1520520214484362984,-0.0853684491,0.0472369236,-0.1234206125,1.9867491607,0.3080290347,9.8379376744
1520520214489379984,-0.0888876402,0.0481169831,-0.1261128681,1.9626978065,0.2696584143,9.8358849065
1520520214494394984,-0.0926567659,0.0501632107,-0.1290663105,1.9554824002,0.3020357677,9.8231399811
1520520214499411984,-0.0961751220,0.0513331979,-0.1312152512,1.9145950980,0.2924458287,9.8305201715
1520520214504426984,-0.0994472836,0.0484224432,-0.1328546900,1.9374438845,0.2708595216,9.8570481345
1520520214509443984,-0.1037255187,0.0455142085,-0.1355744456,1.9663055096,0.2516710270,9.8788666577
1520520214514457984,-0.1115180249,0.0443478036,-0.1363805072,1.9254182074,0.2085051562,9.8339831116
1520520214519474984,-0.1170513899,0.0426053432,-0.1393595826,1.9061771240,0.2192989185,9.8016198377
1520520214524490984,-0.1213306365,0.0391150678,-0.1423543302,1.8436436029,0.2013166825,9.7975974649
1520520214529506984,-0.1296348435,0.0327101004,-0.1456343870,1.8195922486,0.1737383260,9.7490484148
1520520214534521984,-0.1341653419,0.0303903637,-0.1505135967,1.8183896809,0.1389633473,9.7595533263
1520520214539538984,-0.1386939506,0.0286497540,-0.1540356309,1.7823126495,0.1185807700,9.7645729326
1520520214544554984,-0.1434721842,0.0289523796,-0.1588943662,1.7330073733,0.0742164143,9.7139617714
1520520214549569984,-0.1447325007,0.0280864749,-0.1621452526,1.7185765607,0.0754166787,9.7292089342
1520520214554585984,-0.1469984046,0.0283922704,-0.1678202928,1.7185765607,0.0826115212,9.7315262061
1520520214559601984,-0.1522793220,0.0292803819,-0.1737558321,1.6380045240,0.0946092007,9.7206773119
1520520214564616984,-0.1517779906,0.0319190650,-0.1796887675,1.5971172217,0.0754261383,9.7059861218
1520520214569634984,-0.1495180536,0.0333892571,-0.1842811328,1.5959146540,0.0598374065,9.7327423393
1520520214574649984,-0.1462509845,0.0366096070,-0.1894031183,1.5490145132,0.0430530933,9.7064858963
1520520214579665984,-0.1434882224,0.0410062246,-0.1985734664,1.4973041016,0.0550485249,9.7569497103
1520520214584680984,-0.1364501694,0.0474427507,-0.2071950954,1.4732527473,0.0478555556,9.7769472747
1520520214589696984,-0.1311740661,0.0524245788,-0.2169067564,1.4010986845,0.0562551581,9.8206407190
1520520214594713984,-0.1243828740,0.0600170750,-0.2220019298,1.3541985437,0.0922330236,9.8582507426
1520520214599728984,-0.1178467600,0.0664512189,-0.2298109877,1.3433754343,0.1222123771,9.9327040677
1520520214604744984,-0.1123207222,0.0702668789,-0.2392614618,1.3529959760,0.1509909980,9.9755816894
1520520214609760984,-0.1072972469,0.0708625435,-0.2433245386,1.3265394863,0.1366033734,9.9932853920
1520520214614775984,-0.1007676525,0.0694154650,-0.2460532477,1.3529959760,0.1342030321,10.0302188260
1520520214619793984,-0.0942381444,0.0685540693,-0.2498596944,1.2808419132,0.1725811452,10.0762073247
1520520214624807984,-0.0932437695,0.0615656051,-0.2515381907,1.3109061061,0.1821719271,10.1804982995
1520520214629824984,-0.0904872762,0.0533969949,-0.2475473826,1.3794524657,0.1497897970,10.1682412439
1520520214634839984,-0.0867242742,0.0437609294,-0.2395113684,1.4059089554,0.1413937536,10.2202883960
1520520214639855984,-0.0842226512,0.0300428029,-0.2306925060,1.3854653043,0.1473910479,10.2599944297
1520520214644871984,-0.0804690661,0.0128278260,-0.2216321085,1.3602113823,0.1473930148,10.2102680458
1520520214649887984,-0.0759625137,-0.0070180575,-0.2093465681,1.3181215123,0.1749765226,10.2164615478
1520520214654903984,-0.0719622559,-0.0300715530,-0.1962729105,1.2664111007,0.1881710946,10.1762769641
1520520214659919984,-0.0677108286,-0.0522464259,-0.1848163257,1.2676136684,0.1953658435,10.1774203869
1520520214664933984,-0.0629579444,-0.0741246183,-0.1752522726,1.2652085330,0.1845737670,10.1425900025
1520520214669951984,-0.0526772388,-0.0983397336,-0.1627402673,1.2495751527,0.1689861591,10.0765151642
1520520214674966984,-0.0401320759,-0.1219777497,-0.1477931032,1.2134981213,0.1881752157,10.0384968560
1520520214679982984,-0.0278354362,-0.1421126940,-0.1352537084,1.2291315016,0.1521997854,10.0174611793
1520520214684997984,-0.0152871448,-0.1616633140,-0.1232514259,1.2062827150,0.1557989862,9.9932750443
1520520214690014984,-0.0047509573,-0.1815017355,-0.1128709082,1.2267263661,0.1126283387,9.9663888436
1520520214695030984,0.0083030564,-0.1984282409,-0.1013906432,1.2147006890,0.0982395903,9.8944670011
1520520214700046984,0.0216046758,-0.2170985845,-0.0915474589,1.2134981213,0.0850491393,9.8654379700
1520520214705061984,0.0346591324,-0.2325630683,-0.0819498997,1.2231186630,0.0886458112,9.8072336238
1520520214710078984,0.0477147338,-0.2468605571,-0.0728845401,1.1678005482,0.0514767665,9.7764304192
1520520214715092984,0.0592669018,-0.2564899283,-0.0662157238,1.1569774388,0.0059102733,9.7510130326
1520520214720109984,0.0720743329,-0.2667001194,-0.0600947790,1.1413440585,0.0179028951,9.7558020807
1520520214725126984,0.0833807886,-0.2725430471,-0.0528555041,1.1064695949,0.0215030326,9.7979752017
1520520214730141984,0.0941849994,-0.2778019458,-0.0461519413,1.0908362146,0.0346947948,9.7934659289
1520520214735155984,0.1039767623,-0.2859641571,-0.0435269310,1.0258975581,0.0610809417,9.8103422918
1520520214740172984,0.1132715179,-0.2888765448,-0.0427547929,0.9453255213,0.0826717446,9.8761855439
1520520214745189984,0.1188032559,-0.2880067811,-0.0403234785,0.9405152505,0.1354342979,9.9052345121
1520520214750204984,0.1248374583,-0.2877217748,-0.0370859060,0.9537434953,0.2037842717,9.9654705898
1520520214755221984,0.1291129217,-0.2868532318,-0.0343817121,0.9429203859,0.2577464337,9.9562261634
1520520214760236984,0.1318846811,-0.2839499584,-0.0300358808,0.9032356514,0.3117108436,10.0135048637
1520520214765251984,0.1331523366,-0.2807668177,-0.0216268378,0.8671586200,0.3776663766,10.0312238611
1520520214770267984,0.1344179692,-0.2787477582,-0.0137677788,0.8575380783,0.3944550918,10.0161932594
1520520214775283984,0.1329200635,-0.2758541713,-0.0064380084,0.8575380783,0.4400224279,10.0103381047
1520520214780298984,0.1309217987,-0.2732609070,0.0041370231,0.8130430729,0.4771992465,10.0246806697
1520520214785315984,0.1301740925,-0.2735744399,0.0122525770,0.7529146872,0.4724073678,10.0310813197
1520520214790332984,0.1289259409,-0.2736026125,0.0225356547,0.7805737446,0.4784009157,10.0691570072
1520520214795347984,0.1264177747,-0.2765465796,0.0333399269,0.8226636146,0.5059778674,10.0280453970
1520520214800362984,0.1241580885,-0.2827007770,0.0460130997,0.7661429321,0.5419564821,9.9762639765
1520520214805379984,0.1224013489,-0.2897340301,0.0605724911,0.7360787393,0.5443571044,9.9509870973
1520520214810395984,0.1234076183,-0.2985181496,0.0764661395,0.7396864424,0.5719370532,9.9404657917
1520520214815410984,0.1236561689,-0.3081679768,0.0891079681,0.7360787393,0.6486823213,9.9392639252
1520520214820427984,0.1234061206,-0.3166604755,0.1047356273,0.6819631922,0.7158383997,9.9699409126
1520520214825442984,0.1244132290,-0.3236911888,0.1187487930,0.7024068433,0.7350230542,9.9615882095
1520520214830457984,0.1266824142,-0.3283983463,0.1357534145,0.8202584792,0.7709880883,9.8837045328
1520520214835473984,0.1297050568,-0.3331037515,0.1522155441,0.8575380783,0.7829765890,9.9286535969
1520520214840490984,0.1314777602,-0.3331482251,0.1689861226,0.8394995626,0.7913719769,9.9846038971
1520520214845506984,0.1332512908,-0.3358297280,0.1911476113,0.9188690316,0.8417296931,9.9675122358
1520520214850521984,0.1337728593,-0.3350143804,0.2130675646,1.0054539070,0.8393246688,9.9376182116
1520520214855537984,0.1358045925,-0.3339136134,0.2374218538,1.0643797249,0.8033458667,9.9219718726
1520520214860553984,0.1350733088,-0.3339889372,0.2652894813,1.1172927043,0.7589735500,9.8506093344
1520520214865568984,0.1355927132,-0.3378495823,0.2923142373,1.0788105375,0.7445868621,9.8324036251
1520520214870585984,0.1336003171,-0.3408370583,0.3193503298,1.0415309384,0.7661742931,9.8199618502
1520520214875601984,0.1323640679,-0.3397339291,0.3423579569,0.9862128236,0.8189407801,9.7205044518
1520520214880617984,0.1291167381,-0.3339461253,0.3567474185,0.9934282298,0.7949574097,9.6635125545
1520520214885632984,0.1253672026,-0.3293306124,0.3735638343,1.0114667455,0.7877611623,9.6226689563
1520520214890648984,0.1253927010,-0.3177072823,0.3855567771,0.9910230944,0.8189404055,9.5972703724
1520520214895664984,0.1221591475,-0.2996718588,0.3965225117,0.9729845787,0.8417254784,9.5892887232
1520520214900680984,0.1171704227,-0.2769669593,0.4045510778,0.9669717402,0.8501199297,9.5126375621
1520520214905696984,0.1162084734,-0.2457921224,0.4058729984,0.9332998442,0.8836984840,9.5164189940
1520520214910712984,0.1094691602,-0.2122862885,0.4064118006,0.9621614693,0.8788996745,9.5312506214
1520520214915727984,0.1049982208,-0.1749966686,0.4088691237,0.9838076881,0.8261358100,9.5287670934
1520520214920744984,0.1007803875,-0.1350786621,0.4091816207,0.9681743079,0.8249378871,9.5393797241
1520520214925760984,0.0922913561,-0.0937017646,0.4081604379,0.8755765940,0.8117545543,9.5600503234
1520520214930775984,0.0787798688,-0.0494115340,0.4066297287,0.7925994218,0.7781850850,9.6131871917
1520520214935791984,0.0655177828,-0.0086272889,0.4085889723,0.7444967133,0.7937776569,9.6496666552
1520520214940807984,0.0504842988,0.0278066235,0.4026723058,0.6422784577,0.8273615498,9.7087360412
1520520214945823984,0.0316736327,0.0584106402,0.3969887243,0.6122142648,0.7985845212,9.7160295954
1520520214950838984,0.0098466279,0.0866743865,0.3942689636,0.5941757491,0.8201704537,9.6255368948
1520520214955854984,-0.0124815750,0.1128844040,0.3966749468,0.5809475043,0.8237689052,9.5745278084
1520520214960870984,-0.0355801244,0.1286115674,0.3962968402,0.4955651967,0.8177798530,9.5858240097
1520520214965885984,-0.0579283841,0.1420094068,0.3953584569,0.4642984361,0.8477607987,9.5396133495
1520520214970902984,-0.0820347712,0.1548179606,0.3965832617,0.4787292487,0.8249760067,9.4697664690
1520520214975918984,-0.1046442758,0.1597604512,0.3974746969,0.5063883061,0.7997919037,9.4486032176
1520520214980934984,-0.1257501667,0.1617904158,0.3980705550,0.4847420873,0.7818064832,9.4325614334
1520520214985950984,-0.1461039644,0.1626558660,0.3983855748,0.4871472227,0.7686157512,9.4139565827
1520520214990966984,-0.1644461405,0.1641034161,0.3992423987,0.4739189778,0.7098589007,9.3746297415
1520520214995982984,-0.1802739169,0.1678888544,0.3979479729,0.4474624882,0.6666919060,9.3237950150
1520520215000999984,-0.1920791087,0.1728406777,0.3969255177,0.4234111339,0.6391135495,9.2984888439
1520520215006013984,-0.2016240616,0.1772128033,0.3950827782,0.4294239725,0.6199268344,9.2972868841
1520520215011028984,-0.2053870282,0.1836290704,0.3924332280,0.3849289671,0.6451122487,9.2314532097
1520520215016044984,-0.2073923145,0.1877091230,0.3919269932,0.3849289671,0.5947483509,9.2129080187
1520520215021062984,-0.2101478434,0.1952891367,0.3900961061,0.3031543626,0.6175383878,9.2264653286
1520520215026076984,-0.2081329129,0.2017142242,0.3850009082,0.2514439509,0.6223389769,9.2048832335
1520520215031093984,-0.2008380686,0.2095961165,0.3807186622,0.2610644926,0.6091476830,9.1641274174
1520520215036108984,-0.1948005573,0.2157241104,0.3783192325,0.2297977321,0.5731759054,9.1156567830
1520520215041125984,-0.1887663863,0.2206923936,0.3737465434,0.1937207007,0.5731787152,9.1473858214
1520520215046141984,-0.1777075991,0.2259598579,0.3670023757,0.2009361070,0.5611867490,9.1252465494
1520520215051157984,-0.1686662866,0.2256887717,0.3607607950,0.1841001590,0.5539932177,9.1300660120
1520520215056171984,-0.1598731524,0.2265780261,0.3564223946,0.2009361070,0.5587884682,9.1926532374
1520520215061188984,-0.1473109748,0.2274702143,0.3515359015,0.2297977321,0.5455956757,9.1796015953
1520520215066202984,-0.1329952489,0.2242837082,0.3466150183,0.2285951644,0.5743751395,9.2748810404
1520520215071220984,-0.1232005301,0.2213802586,0.3441396721,0.1937207007,0.5851701195,9.2786963949
1520520215076236984,-0.1136553419,0.2228613186,0.3365577670,0.2466336801,0.5707763134,9.2747089726
1520520215081250984,-0.1033621497,0.2211425432,0.3270561865,0.2730901698,0.5899604996,9.2651356003
1520520215086267984,-0.0925584915,0.2226175396,0.3219068608,0.2718876021,0.5959562954,9.2407364356
1520520215091283984,-0.0810006311,0.2235064202,0.3181044182,0.2718876021,0.5887614528,9.2651484747
1520520215096299984,-0.0727099181,0.2246875906,0.3134986285,0.2935338209,0.5539846947,9.2754309901
1520520215101315984,-0.0646735344,0.2255860193,0.3056445316,0.2502413832,0.5276069771,9.2933102569
1520520215106331984,-0.0541239036,0.2247283842,0.3010189797,0.2153669196,0.5336053954,9.3273460315
1520520215111346984,-0.0473461703,0.2238772850,0.2934244238,0.2418234092,0.5012265434,9.3410658199
1520520215116362984,-0.0375550935,0.2218640144,0.2850037373,0.2021386747,0.4556622981,9.3763608403
1520520215121378984,-0.0327947880,0.2166450018,0.2760268394,0.1853027267,0.4544644689,9.3858230320
1520520215126394984,-0.0282781757,0.2149130355,0.2705941820,0.2033412424,0.4580604853,9.4274811305
1520520215131409984,-0.0252725671,0.2111422435,0.2646076715,0.1612513725,0.4592629038,9.4662403886
1520520215136426984,-0.0220210229,0.2050477582,0.2558974506,0.1672642110,0.4628598568,9.5068533937
1520520215141442984,-0.0222884150,0.1966128055,0.2501519841,0.1841001590,0.4700533881,9.5043582190
1520520215146458984,-0.0253110773,0.1940008182,0.2458088426,0.1612513725,0.4916396953,9.5615046207
1520520215151474984,-0.0225638478,0.1861556435,0.2378978544,0.2045438101,0.5408010809,9.6563311000
1520520215156489984,-0.0245874777,0.1777105320,0.2356727515,0.2490388155,0.5372001942,9.6617122407
1520520215161506984,-0.0286171426,0.1724698626,0.2334758364,0.2827107115,0.5539855376,9.6392873933
1520520215166520984,-0.0298834456,0.1660625529,0.2320765327,0.2995466595,0.5851618774,9.7053353250
1520520215171537984,-0.0361736121,0.1616951511,0.2298904873,0.3235980137,0.5899565659,9.7364744333
1520520215176552984,-0.0402028850,0.1552823877,0.2301195929,0.3644853160,0.5551783092,9.7233267888
1520520215181567984,-0.0462357741,0.1535295324,0.2309290934,0.3464468003,0.5431883098,9.7200276261
1520520215186584984,-0.0507612661,0.1514858832,0.2317335705,0.3717007222,0.4976190069,9.6779890725
1520520215191600984,-0.0547811692,0.1514813942,0.2328232217,0.4005623473,0.4232700528,9.6940506655
1520520215196615984,-0.0608109807,0.1511818192,0.2349965671,0.3680930191,0.3537224371,9.6746780765
1520520215201632984,-0.0620688392,0.1500150604,0.2352605543,0.3692955868,0.2949644627,9.6712372372
1520520215206648984,-0.0650842487,0.1503059919,0.2349978322,0.3813212639,0.2410022070,9.6304977685
1520520215211664984,-0.0675970606,0.1505971203,0.2347341766,0.3765109931,0.1606601733,9.6201636389
1520520215216679984,-0.0678492336,0.1520634141,0.2312286621,0.3055594980,0.0695310270,9.6674288652
1520520215221695984,-0.0665952838,0.1529504433,0.2266337175,0.3151800397,0.0155689587,9.6371721022
1520520215226712984,-0.0638359129,0.1535532346,0.2195988364,0.2514439509,0.0071799397,9.6238549281
1520520215231726984,-0.0613291932,0.1573800964,0.2055546827,0.1949232684,-0.0299890114,9.5663341175
1520520215236743984,-0.0548012533,0.1612070766,0.1920441532,0.1780873205,-0.0551696491,9.5734954082
1520520215241759984,-0.0475166882,0.1673668853,0.1780089165,0.1564411016,-0.0659602270,9.5876623507
1520520215246775984,-0.0387278037,0.1717826198,0.1626048114,0.1239717734,-0.0803473832,9.5717224039
1520520215251791984,-0.0286864748,0.1724072055,0.1485222020,0.0830844711,-0.0803441988,9.5942011110
1520520215256807984,-0.0189043090,0.1713015963,0.1276630735,0.0433997366,-0.0767436868,9.6375831961
1520520215261823984,-0.0088751569,0.1666980144,0.1073178930,-0.0407800033,-0.0767371306,9.7290497785
1520520215266837984,0.0074403315,0.1626694650,0.0907531331,-0.0035004042,-0.0803374553,9.7763383319
1520520215271854984,0.0214868306,0.1545664734,0.0719970834,0.0794767680,-0.0659542327,9.8336238486
1520520215276870984,0.0350256237,0.1409189663,0.0561757334,0.1203640702,-0.0203900811,9.8982615033
1520520215281885984,0.0498193624,0.1228866148,0.0457296214,0.2237848935,0.0419571662,10.0285163296
1520520215286902984,0.0691364290,0.1022219199,0.0395838349,0.2911286855,0.1091037849,10.0893889930
1520520215291917984,0.0872010434,0.0824214168,0.0369641480,0.3921443734,0.1894383259,10.2022175301
1520520215296934984,0.1040000526,0.0544550987,0.0367194613,0.4606907330,0.2050218127,10.2770744975
1520520215301950984,0.1233205731,0.0282176762,0.0440587311,0.5268319572,0.2505839975,10.3275206185
1520520215306965984,0.1449067387,0.0034315066,0.0538398287,0.5665166917,0.3201310513,10.3991194551
1520520215311981984,0.1664890779,-0.0236835539,0.0627915041,0.5857577751,0.3453115016,10.3710161631
1520520215316996984,0.1865690344,-0.0473047761,0.0725842945,0.5460730406,0.3621025583,10.4364661207
1520520215322012984,0.2094181158,-0.0680139838,0.0834763653,0.4967677644,0.3453184325,10.3625851857
1520520215327028984,0.2282432560,-0.0881288859,0.0895105238,0.4679061393,0.3105456080,10.2780635092
1520520215332043984,0.2498374310,-0.1062095692,0.0979900230,0.3861315348,0.2865691684,10.2079920586
1520520215337061984,0.2709338972,-0.1187454022,0.1032661435,0.3404339617,0.2482002340,10.0585576995
1520520215342077984,0.2907755471,-0.1277749152,0.1047836320,0.2851158469,0.1426801851,10.0115511319
1520520215347091984,0.3108712754,-0.1318376809,0.1014686202,0.1877078622,0.0419599760,9.9510038364
1520520215352108984,0.3277070778,-0.1280219611,0.0936204189,0.1396051536,-0.0119975967,9.8643638623
1520520215357123984,0.3440463552,-0.1192507158,0.0849993058,0.1155537994,-0.0815458680,9.7775049886
1520520215362140984,0.3558644178,-0.1058052502,0.0712817910,0.0746664971,-0.1139194750,9.7593402294
1520520215367155984,0.3649144179,-0.0920556428,0.0524312613,0.0025124344,-0.1822648596,9.7635956170
1520520215372172984,0.3734663053,-0.0759795268,0.0352227250,-0.0143235136,-0.2470171312,9.7905519430
1520520215377187984,0.3754817455,-0.0596043880,0.0142409042,0.0313740595,-0.2602112349,9.7982550213
1520520215382202984,0.3752333009,-0.0432228510,-0.0094421752,0.0313740595,-0.2877914647,9.7599311656
1520520215387219984,0.3692011529,-0.0306359479,-0.0315201446,0.0542228460,-0.3069794910,9.7701867745
1520520215392236984,0.3631668958,-0.0186274432,-0.0552258356,0.1071358254,-0.3669406332,9.7813516586
1520520215397251984,0.3533547508,-0.0136172863,-0.0776251503,0.1227692057,-0.3885263784,9.7788962530
1520520215402267984,0.3387650662,-0.0115264874,-0.0986850986,0.1359974505,-0.3957222512,9.8240981277
1520520215407282984,0.3254265518,-0.0135153080,-0.1195079579,0.0987178514,-0.3813296627,9.8709327105
1520520215412299984,0.3113241556,-0.0222033544,-0.1414627315,0.0951101483,-0.3501517307,9.9255581887
1520520215417314984,0.2939514795,-0.0361499856,-0.1588521730,0.1263769088,-0.3369636212,9.9542945934
1520520215422331984,0.2783334495,-0.0541789531,-0.1749232753,0.1347948828,-0.2997909237,9.9472035447
1520520215427346984,0.2632140144,-0.0748287276,-0.1915564106,0.1155537994,-0.2470272465,9.9182857758
1520520215432361984,0.2496079980,-0.0934476892,-0.2046596881,0.1372000182,-0.2050590175,9.9168720140
1520520215437378984,0.2395155000,-0.1161475696,-0.2167184392,0.1961258361,-0.1570979899,9.9313595641
1520520215442393984,0.2291700683,-0.1426472022,-0.2244768894,0.2370131384,-0.1079364170,9.8948871867
1520520215447408984,0.2236083744,-0.1636137571,-0.2303081474,0.2646721958,-0.0899514648,9.8667089754
1520520215452426984,0.2210627879,-0.1866297488,-0.2321023793,0.3765109931,-0.0863627540,9.8900219201
1520520215457440984,0.2165094844,-0.2114115891,-0.2276836603,0.4222085662,-0.0336041344,9.8197970398
1520520215462457984,0.2179892425,-0.2356119396,-0.2219189670,0.4618933007,-0.0084252763,9.8275212245
1520520215467472984,0.2222426104,-0.2545735699,-0.2134139332,0.4895523581,0.0203519397,9.8911418615
1520520215472489984,0.2234804825,-0.2726585860,-0.2062493589,0.6013911554,0.0527200207,9.9237238938
1520520215477505984,0.2244753553,-0.2904785395,-0.1893424426,0.7228504944,0.0263294718,9.8818923702
1520520215482519984,0.2274894122,-0.3039364070,-0.1688888171,0.8419046980,0.0682901143,9.8574497636
1520520215487537984,0.2352965375,-0.3036966027,-0.1486101202,0.7733583384,0.1162610698,9.7813686773
1520520215492552984,0.2390789180,-0.3078356975,-0.1259223890,0.8094353698,0.1114616983,9.7624278997
1520520215497567984,0.2426230272,-0.3006028814,-0.1061234956,0.8106379375,0.1426392557,9.7275214732
1520520215502583984,0.2441702908,-0.2855129403,-0.0827437485,0.9320972765,0.1234435492,9.6856829335
1520520215507599984,0.2502454144,-0.2695579999,-0.0553075446,0.9693768756,0.1210423649,9.6620795364
1520520215512615984,0.2528058356,-0.2489328159,-0.0313463340,0.9152613285,0.1006611924,9.5882489296
1520520215517631984,0.2510932986,-0.2283063918,-0.0084593726,0.9284895733,0.0562919665,9.4998404990
1520520215522647984,0.2511497015,-0.2030287811,0.0187886254,0.9946307975,0.0071220578,9.4097595794
1520520215527663984,0.2502077737,-0.1722130728,0.0452690912,0.9970359330,-0.0096660954,9.3260781753
1520520215532678984,0.2434788534,-0.1437175935,0.0668726809,1.0271001258,-0.0528374921,9.2712068792
1520520215537695984,0.2342397205,-0.1117199285,0.0860727018,0.9874153913,-0.0960034566,9.2576895149
1520520215542712984,0.2275168729,-0.0782687269,0.1069024462,1.0367206675,-0.1307823689,9.2165684800
1520520215547726984,0.2145110724,-0.0445256885,0.1266638982,1.0836208083,-0.1451757068,9.2010181435
1520520215552743984,0.1979863866,-0.0104890017,0.1450813779,1.0920387823,-0.1607651879,9.1533035073
1520520215557758984,0.1829662868,0.0229735194,0.1605156063,1.1557748711,-0.1511770285,9.1619709363
1520520215562774984,0.1649313930,0.0570176282,0.1759598815,1.1858390639,-0.1643699146,9.1895826275
1520520215567790984,0.1461395722,0.0907787982,0.1881567831,1.2327392047,-0.1511830227,9.1995725632
1520520215572806984,0.1253303629,0.1184157349,0.2019340090,1.2471700173,-0.1284004786,9.2551927948
1520520215577822984,0.1025082186,0.1469384209,0.2111223578,1.3000829966,-0.0828372635,9.3394698461
1520520215582836984,0.0809442817,0.1757486132,0.2219338714,1.3277420540,-0.0444669242,9.3635682340
1520520215587854984,0.0581155864,0.2010733537,0.2283923072,1.3337548926,-0.0360734095,9.4006901299
1520520215592870984,0.0355340539,0.2231922344,0.2350963683,1.3181215123,-0.0108902430,9.4112770351
1520520215597886984,0.0124499668,0.2450180768,0.2423402315,1.3602113823,0.0058944448,9.4701203290
1520520215602901984,-0.0096367931,0.2636507382,0.2452290396,1.3373625957,0.0574592625,9.5388589368
1520520215607916984,-0.0317298023,0.2770355643,0.2491600157,1.3481857052,0.0682506834,9.5852288254
1520520215612949984,-0.0555848984,0.2869172595,0.2552319490,1.3541985437,0.0634536534,9.6386335994
1520520215617949984,-0.0769355802,0.2924379125,0.2580193181,1.3602113823,0.0742454489,9.6908610280
1520520215622965984,-0.0997993357,0.2935850215,0.2615877789,1.3578062469,0.0766439171,9.7699078883
1520520215627981984,-0.1198996863,0.2932726488,0.2664927198,1.3854653043,0.0934297288,9.7986759001
1520520215632996984,-0.1359856340,0.2885925403,0.2708157551,1.3926807105,0.1054205711,9.8171882797
1520520215638012984,-0.1528339229,0.2786715855,0.2734768996,1.4323654451,0.1114131825,9.8260933177
1520520215643028984,-0.1648992698,0.2722374609,0.2804845877,1.4936963984,0.1389886355,9.8429016244
1520520215648044984,-0.1724487179,0.2599759610,0.2879805049,1.5117349141,0.1186018434,9.9194474283
1520520215653060984,-0.1820089486,0.2488857674,0.2930541352,1.5261657267,0.0946179111,9.8856281797
1520520215658075984,-0.1883024279,0.2372118995,0.2989288896,1.5237605912,0.0790292729,9.8926396549
1520520215663091984,-0.1885604268,0.2275749871,0.3067018254,1.5237605912,0.0766309920,9.8845069859
1520520215668108984,-0.1870614861,0.2176532069,0.3123049040,1.5430016747,0.0646380892,9.8634128073
1520520215673123984,-0.1817979870,0.2054076547,0.3157188299,1.5478119455,0.0622394337,9.8587197499
1520520215678139984,-0.1772845621,0.1940272195,0.3223873759,1.5766735706,0.0346569562,9.8456821398
1520520215683154984,-0.1687460003,0.1858535895,0.3290729084,1.5309759975,0.0202708302,9.8194116531
1520520215688170984,-0.1609641459,0.1773962923,0.3327816130,1.5069246433,0.0262684055,9.8033698922
1520520215693187984,-0.1484036972,0.1721475524,0.3359648121,1.5297734298,0.0058812387,9.8020052309
1520520215698203984,-0.1343376942,0.1671995289,0.3359008831,1.5309759975,-0.0216990847,9.7404267911
1520520215703218984,-0.1215283656,0.1604954217,0.3385314082,1.4840758567,-0.0324876957,9.7304345168
1520520215708234984,-0.1089717001,0.1526249495,0.3414240536,1.4540116639,-0.0228922308,9.7702306829
1520520215713249984,-0.0964130549,0.1462114000,0.3443278144,1.4467962576,-0.0528701795,9.7377901160
1520520215718266984,-0.0828530798,0.1392256732,0.3434376196,1.4131243617,-0.0336813102,9.7636663151
1520520215723282984,-0.0725670698,0.1281643822,0.3406285478,1.3722370594,-0.0168901598,9.8128579624
1520520215728298984,-0.0617775840,0.1171003743,0.3389007261,1.3445780020,-0.0780441673,9.8364296941
1520520215733312984,-0.0459570172,0.1101191758,0.3366536013,1.3469831374,-0.0756460737,9.8119989222
1520520215738329984,-0.0341595643,0.1010952534,0.3349394743,1.2868547518,-0.0660482673,9.7707376380
1520520215743345984,-0.0238663838,0.0949860425,0.3327092866,1.2736265070,-0.0984240285,9.8185458679
1520520215748361984,-0.0128283669,0.0833459199,0.3285416390,1.2760316424,-0.1535846753,9.7686040574
1520520215753377984,-0.0032977040,0.0717037497,0.3249178834,1.2892598872,-0.1763693736,9.7673353752
1520520215758393984,0.0067320871,0.0597805900,0.3175033288,1.2375494756,-0.2039455760,9.8004056182
1520520215763408984,0.0152510117,0.0478670375,0.3063039320,1.2243212307,-0.2471136010,9.8098736217
1520520215768424984,0.0210099576,0.0379869947,0.2970190520,1.2363469079,-0.2722964865,9.8295375744
1520520215773440984,0.0287796039,0.0289848069,0.2866549239,1.1942570379,-0.2854837530,9.7811500681
1520520215778457984,0.0355415497,0.0191124422,0.2746627180,1.1870416316,-0.2986737357,9.7475309865
1520520215783471984,0.0425575230,0.0115727091,0.2621467384,1.1196978397,-0.3106598950,9.7667924663
1520520215788487984,0.0440516965,0.0086915055,0.2502176877,1.1088747303,-0.3022650691,9.7843217857
1520520215793504984,0.0442946136,0.0104756043,0.2369738106,1.0559617509,-0.3454300033,9.7500145858
1520520215798520984,0.0430344852,0.0142922481,0.2261832085,1.0403283706,-0.3358356623,9.7083202145
1520520215803535984,0.0437865941,0.0189816478,0.2162071796,1.0090616101,-0.2998590145,9.6667522834
1520520215808551984,0.0407688676,0.0230853448,0.2067747971,0.9296921410,-0.3034502542,9.6361504384
1520520215813566984,0.0324792720,0.0292179248,0.2006143281,0.8587406460,-0.3046438687,9.5950050237
1520520215818583984,0.0231853671,0.0382741542,0.1906903144,0.7817763124,-0.2746593638,9.5736441787
1520520215823598984,0.0106242246,0.0467448778,0.1813090137,0.6278476451,-0.2650542520,9.5286473130
1520520215828616984,-0.0019403444,0.0546415736,0.1686767160,0.4763241133,-0.2662415912,9.5138533041
1520520215833630984,-0.0157614937,0.0631234598,0.1549690146,0.3620801805,-0.2926137829,9.5626389121
1520520215838646984,-0.0308370672,0.0739395721,0.1399287020,0.2406208415,-0.3021974466,9.6021812280
1520520215843663984,-0.0489363655,0.0789275408,0.1245789824,0.1732770496,-0.3417638356,9.6540096333
1520520215848677984,-0.0675413820,0.0827548736,0.1073274827,0.0722613617,-0.3849250234,9.7201150157
1520520215853694984,-0.0848967612,0.0839711643,0.0859954532,-0.0347671647,-0.4184926195,9.6921359084
1520520215858711984,-0.1025064775,0.0819777562,0.0662627118,-0.0335645970,-0.4748523131,9.7177463293
1520520215863725984,-0.1226294056,0.0785206134,0.0486878894,-0.0071081073,-0.5144260076,9.6989331029
1520520215868741984,-0.1409941240,0.0736035951,0.0324514140,-0.0504005450,-0.5911676229,9.6424842689
1520520215873758984,-0.1596100628,0.0651738385,0.0221407380,0.0001072989,-0.6607217012,9.6002232959
1520520215878774984,-0.1724510135,0.0526647776,0.0125998419,0.0289689240,-0.6871050384,9.5906709484
1520520215883788984,-0.1840352543,0.0386920022,0.0057509557,0.0181458146,-0.7314723911,9.5629281045
1520520215888806984,-0.1961218733,0.0247183013,-0.0008264512,0.0963127160,-0.7806432363,9.5691880825
1520520215893821984,-0.2031918032,0.0022891340,-0.0047722031,0.1684667787,-0.8082290857,9.6022148486
1520520215898837984,-0.2064882087,-0.0192738725,-0.0052011899,0.2670773312,-0.8058384849,9.6117119909
1520520215903852984,-0.2092838278,-0.0449284488,-0.0010629531,0.3308134200,-0.8082417298,9.6099318176
1520520215908869984,-0.2050411861,-0.0685376630,0.0019955935,0.4113854568,-0.7770703540,9.6672243737
1520520215913884984,-0.1965215834,-0.0895271132,0.0066894889,0.4847420873,-0.6943353780,9.7826440763
1520520215918900984,-0.1859839374,-0.1058579939,0.0130384952,0.5364524989,-0.5756245035,9.8796450864
1520520215923917984,-0.1709125274,-0.1137333090,0.0180908405,0.5605038532,-0.4569114748,9.9769153129
1520520215928932984,-0.1525787606,-0.1236412084,0.0209571897,0.6422784577,-0.3214149758,10.0840666214
1520520215933947984,-0.1322281423,-0.1312281705,0.0278957782,0.6867734630,-0.2206906456,10.1288589241
1520520215938964984,-0.1116253863,-0.1370616278,0.0329534172,0.7396864424,-0.1211661115,10.2177319309
1520520215943980984,-0.0839755290,-0.1353177876,0.0385968799,0.7204453590,-0.0504153280,10.2457416757
1520520215948996984,-0.0588370369,-0.1341657138,0.0472165686,0.7384838747,-0.0012519755,10.3036253546
1520520215954011984,-0.0316848610,-0.1330237787,0.0598907120,0.7685480675,0.0503087212,10.3567410685
1520520215959027984,-0.0055439061,-0.1356673226,0.0714556385,0.7613326612,0.0491101427,10.4602432801
1520520215964042984,0.0205946220,-0.1426932893,0.0873159531,0.7938019895,0.0766878436,10.5377639937
1520520215969060984,0.0472293222,-0.1552590073,0.1044858251,0.7817763124,0.0790870611,10.5832023198
1520520215974074984,0.0741151056,-0.1663604199,0.1189608868,0.7481044164,0.0934793686,10.6416232271
1520520215979091984,0.0967314905,-0.1763016102,0.1348055047,0.7493069841,0.1210595047,10.6625032184
1520520215984105984,0.1178391611,-0.1859476362,0.1490318706,0.6831657599,0.1150689539,10.6399099641
1520520215989122984,0.1369383308,-0.1950153229,0.1646191460,0.6579118379,0.1138717803,10.5448611354
1520520215994138984,0.1550454189,-0.1932970770,0.1783967211,0.5857577751,0.0635135021,10.4584517544
1520520215999154984,0.1688836887,-0.1869081543,0.1884301573,0.5160088478,0.0299430026,10.4347583662
1520520216004171984,0.1804664711,-0.1764429196,0.1993105550,0.4125880245,-0.0288068234,10.3393643504
1520520216009185984,0.1865221377,-0.1624723101,0.2061697091,0.3248005814,-0.0443888118,10.2890996870
1520520216014201984,0.1885526244,-0.1514156643,0.2124730082,0.2791030083,-0.0599740782,10.2616682256
1520520216019218984,0.1915887925,-0.1391894445,0.2174306032,0.2141643518,0.0071828432,10.2622348157
1520520216024233984,0.1921094672,-0.1278339922,0.2207629208,0.1997335393,0.0395607585,10.2205065219
