#timestamp [ns],w_RS_S_x [rad s^-1],w_RS_S_y [rad s^-1],w_RS_S_z [rad s^-1],a_RS_S_x [m s^-2],a_RS_S_y [m s^-2],a_RS_S_z [m s^-2]
1403636579758555392,-0.099134701513277898,0.14730578886832138,0.02722713633111154,8.1476917083333333,-0.37592158333333331,-2.4026292499999999
1403636579763555584,-0.099134701513277898,0.14032447186034408,0.029321531433504733,8.033280791666666,-0.40861041666666664,-2.4026292499999999
1403636579768555520,-0.098436569812480182,0.12775810124598494,0.037699111843077518,7.8861810416666662,-0.42495483333333334,-2.4353180833333332
1403636579773555456,-0.10262536001726656,0.11588986233242347,0.045378560551852569,7.8289755833333325,-0.37592158333333331,-2.4680069166666665
1403636579778555392,-0.1054178868204575,0.10821041362364843,0.05166174585903216,7.7145646666666661,-0.40861041666666664,-2.557901208333333
1403636579783555584,-0.10890854532444616,0.097738438111682452,0.056548667764616284,7.6573592083333333,-0.43312704166666666,-2.6396232916666666
1403636579788555520,-0.11030480872604163,0.085870199198121014,0.061435589670200401,7.5919815416666658,-0.46581587499999999,-2.7050009583333332
1403636579793555456,-0.114493598930828,0.074700091985357306,0.060039326268604934,7.5511204999999997,-0.47398808333333331,-2.7458620000000002
1403636579798555392,-0.11100294042683936,0.057246799465414,0.062133721370998138,7.5919815416666658,-0.51484912499999991,-2.8847895416666667
1403636579803555584,-0.11728612573401893,0.046774823953448029,0.061435589670200401,7.6246703749999991,-0.48216029166666663,-2.9256505833333333
1403636579808555520,-0.12147491593880534,0.033510321638291124,0.05375614096142535,7.6001537499999996,-0.53936574999999998,-2.9338227916666666
1403636579813555456,-0.11938052083641214,0.011868238913561441,0.041189770347066175,7.7145646666666661,-0.52302133333333334,-2.9665116249999999
1403636579818555392,-0.12007865253720987,-0.0027925268031909274,0.033510321638291124,7.7309090833333327,-0.45764366666666667,-2.9338227916666666
1403636579823555584,-0.11728612573401893,-0.019547687622336492,0.02583087292951608,7.8371477916666663,-0.4494714583333333,-2.852100708333333
1403636579828555520,-0.11030480872604163,-0.043284165449459372,0.0153588974175501,8.033280791666666,-0.42495483333333334,-2.7785508333333331
1403636579833555456,-0.1075122819228507,-0.064926248174189058,0.0062831853071795866,8.1313472916666658,-0.40043820833333332,-2.7131731666666665
1403636579838555392,-0.098436569812480182,-0.08168140899333462,0.00069813170079773186,8.253930416666666,-0.36774937499999999,-2.6559677083333328
1403636579843555584,-0.089360857702109678,-0.093549647906896058,-0.0013962634015954637,8.3519969166666659,-0.41678262500000002,-2.623278875
1403636579848555520,-0.07819075048934597,-0.099134701513277898,-0.0034906585039886592,8.2947914583333322,-0.35140495833333335,-2.557901208333333
1403636579853555456,-0.071209433481368656,-0.1075122819228507,0.0013962634015954637,8.2130693749999999,-0.38409379166666668,-2.6069344583333329
1403636579858555392,-0.065624379874986788,-0.12147491593880534,0.0097738438111682462,8.2457582083333332,-0.40861041666666664,-2.6723121249999999
1403636579863555584,-0.062831853071795868,-0.13055062804917586,0.018151424220741029,8.1150028750000001,-0.44129924999999998,-2.7785508333333331
1403636579868555520,-0.058643062867009467,-0.13194689145077129,0.031415926535897934,8.0251085833333331,-0.4903325,-2.8847895416666667
1403636579873555456,-0.048171087355043489,-0.14660765716752369,0.047472955654245766,8.0005919583333327,-0.4494714583333333,-2.9828560416666661
1403636579878555392,-0.040491638646268438,-0.16057029118347829,0.064228116473391328,7.9597309166666657,-0.43312704166666666,-3.0890947499999997
1403636579883555584,-0.040491638646268438,-0.16755160819145562,0.073303828583761846,7.9760753333333332,-0.40861041666666664,-3.1871612499999999
1403636579888555520,-0.043284165449459372,-0.17662732030182612,0.076794487087750496,7.9842475416666669,-0.40861041666666664,-3.2443667083333327
1403636579893555456,-0.044680428851054839,-0.18919369091618532,0.08237954069413235,7.9679031249999994,-0.36774937499999999,-3.2688833333333331
1403636579898555392,-0.045378560551852569,-0.20106192982974677,0.074001960284559576,8.0169363750000002,-0.53936574999999998,-3.2116778749999999
1403636579903555584,-0.039095375244672985,-0.21362830044410594,0.071209433481368656,8.1640361249999991,-0.57205458333333326,-3.1953334583333328
1403636579908555520,-0.032812189937493394,-0.22270401255447644,0.064926248174189058,8.3029636666666669,-0.61291562499999996,-3.1708168333333329
1403636579913555456,-0.020245819323134219,-0.23038346126325149,0.060737457969402671,8.4664078333333332,-0.67829329166666663,-3.1054391666666663
1403636579918555392,-0.010471975511965976,-0.23247785636564469,0.061435589670200401,8.6298519999999996,-0.59657120833333332,-3.0890947499999997
1403636579923555584,-0.0013962634015954637,-0.23317598806644241,0.064228116473391328,8.6952296666666662,-0.4903325,-3.0482337083333335
1403636579928555520,0.0076794487087750501,-0.22759093446006054,0.064926248174189058,8.744262916666667,-0.46581587499999999,-3.0318892916666664
1403636579933555456,0.0076794487087750501,-0.22689280275926282,0.069115038378975438,8.7606073333333327,-0.37592158333333331,-3.0482337083333335
1403636579938555392,0.0076794487087750501,-0.2199114857512855,0.08168140899333462,8.6870574583333333,-0.35957716666666667,-3.0727503333333335
1403636579943555584,0.0048869219055841231,-0.21642082724729686,0.089360857702109678,8.6380242083333325,-0.35140495833333335,-3.1299557916666663
1403636579948555520,-0.0020943951023931952,-0.21851522234969004,0.10122909661567112,8.6216797916666668,-0.21247741666666667,-3.1789890416666662
1403636579953555456,-0.0076794487087750501,-0.21153390534171271,0.10611601852125524,8.5971631666666664,-0.122583125,-3.1789890416666662
1403636579958555392,-0.020245819323134219,-0.21013764194011728,0.1075122819228507,8.5808187499999988,-0.073549874999999987,-3.1953334583333328
1403636579963555584,-0.029321531433504733,-0.21153390534171271,0.11100294042683936,8.5889909583333335,-0.122583125,-3.2852277500000002
1403636579968555520,-0.038397243543875248,-0.20385445663293766,0.11379546723003027,8.5236132916666651,-0.196133,-3.2688833333333331
1403636579973555456,-0.040491638646268438,-0.1954768762233649,0.12147491593880534,8.4990966666666665,-0.32688833333333334,-3.2280222916666665
1403636579978555392,-0.033510321638291124,-0.19757127132575814,0.13892820845874865,8.5563021250000002,-0.53936574999999998,-3.2361944999999999
1403636579983555584,-0.020943951023931952,-0.18779742751458986,0.15219271077390556,8.5236132916666651,-0.68646550000000006,-3.2116778749999999
1403636579988555520,-0.0048869219055841231,-0.18011797880581482,0.1626646862858715,8.5808187499999988,-0.84990966666666667,-3.2361944999999999
1403636579993555456,0.0097738438111682462,-0.17383479349863523,0.16894787159305111,8.6380242083333325,-0.86625408333333331,-3.2361944999999999
1403636579998555392,0.024434609527920613,-0.16057029118347829,0.16964600329384885,8.6380242083333325,-0.86625408333333331,-3.2198500833333328
1403636580003555584,0.032812189937493394,-0.14451326206513049,0.16824973989225336,8.6707130416666658,-0.8253930416666666,-3.2280222916666665
1403636580008555520,0.039095375244672985,-0.13683381335635544,0.15498523757709648,8.744262916666667,-0.53936574999999998,-3.3179165833333331
1403636580013555456,0.039095375244672985,-0.13124875974997358,0.13962634015954636,8.8096405833333318,-0.36774937499999999,-3.3832942499999996
1403636580018555392,0.034208453339088861,-0.12147491593880534,0.13543754995475996,8.8995348749999987,-0.17978858333333333,-3.3751220416666667
1403636580023555584,0.017453292519943295,-0.12356931104119852,0.12985249634837812,8.9730847499999999,0.016344416666666667,-3.3996386666666667
1403636580028555520,0.0034906585039886592,-0.1270599695451872,0.12636183784438945,9.0302902083333318,0.10623870833333333,-3.4241552916666667
1403636580033555456,-0.013962634015954637,-0.12775810124598494,0.12217304763960307,9.193734375,0.13075533333333333,-3.3914664583333329
1403636580038555392,-0.027925268031909273,-0.12985249634837812,0.1165879940332212,9.422556208333333,0.16344416666666667,-3.3914664583333329
1403636580043555584,-0.037000980142279788,-0.12426744274199628,0.1075122819228507,9.5287949166666657,0.024516625,-3.3506054166666663
1403636580048555520,-0.043284165449459372,-0.12356931104119852,0.094945911308491532,9.6268614166666655,-0.057205458333333334,-3.3506054166666663
1403636580053555456,-0.043284165449459372,-0.11728612573401893,0.092153384505300612,9.6922390833333321,-0.057205458333333334,-3.366949833333333
1403636580058555392,-0.041887902047863905,-0.11379546723003027,0.092153384505300612,9.5860003749999994,-0.22064962499999999,-3.342433208333333
1403636580063555584,-0.034208453339088861,-0.11030480872604163,0.099134701513277898,9.5533115416666661,-0.36774937499999999,-3.3914664583333329
1403636580068555520,-0.02583087292951608,-0.11100294042683936,0.12356931104119852,9.3816951666666668,-0.43312704166666666,-3.4159830833333329
1403636580073555456,-0.013962634015954637,-0.10821041362364843,0.14381513036433274,9.3244897083333331,-0.49850470833333332,-3.4159830833333329
1403636580078555392,0.0020943951023931952,-0.098436569812480182,0.1668534764906579,9.3980395833333326,-0.64560445833333324,-3.4895329583333332
1403636580083555584,0.011868238913561441,-0.089360857702109678,0.18221237390820799,9.422556208333333,-0.6701210833333332,-3.6529771249999996
1403636580088555520,0.023736477827122883,-0.073303828583761846,0.19268434942017396,9.3898673749999997,-0.64560445833333324,-3.7755602499999998
1403636580093555456,0.029321531433504733,-0.062831853071795868,0.19687313962496036,9.3653507499999993,-0.63743225000000003,-3.8327657083333331
1403636580098555392,0.029321531433504733,-0.057944931166211737,0.19338248112097173,9.3081452916666674,-0.52302133333333334,-3.8491101249999997
1403636580103555584,0.0307177948351002,-0.050963614158234416,0.18430676901060122,9.2182509999999986,-0.50667691666666659,-3.881798958333333
1403636580108555520,0.023038346126325153,-0.050265482457436693,0.17523105690023066,9.242767624999999,-0.49850470833333332,-3.9553488333333329
1403636580113555456,0.020245819323134219,-0.052359877559829883,0.16336281798666924,9.3653507499999993,-0.43312704166666666,-3.9880376666666666
1403636580118555392,0.023038346126325153,-0.050963614158234416,0.15428710587629874,9.3980395833333326,-0.38409379166666668,-3.8981433750000001
1403636580123555584,0.017453292519943295,-0.05375614096142535,0.14590952546672595,9.4797616666666666,-0.37592158333333331,-3.8654545416666664
1403636580128555520,0.010471975511965976,-0.05166174585903216,0.13334315485236678,9.5614837499999989,-0.38409379166666668,-3.7919046666666665
1403636580133555456,0.0034906585039886592,-0.055850536063818547,0.12566370614359174,9.6105169999999998,-0.40043820833333332,-3.702010375
1403636580138555392,0.0069813170079773184,-0.059341194567807204,0.11519173063162574,9.6595502499999988,-0.48216029166666663,-3.5549106249999998
1403636580143555584,0.0076794487087750501,-0.060737457969402671,0.11309733552923257,9.7494445416666657,-0.4494714583333333,-3.5303939999999998
1403636580148555520,0.013962634015954637,-0.058643062867009467,0.1165879940332212,9.7739611666666661,-0.37592158333333331,-3.5058773749999999
1403636580153555456,0.016755160819145562,-0.055850536063818547,0.12496557444279401,9.8556832499999985,-0.22064962499999999,-3.587599458333333
1403636580158555392,0.01117010721276371,-0.050265482457436693,0.12985249634837812,9.9292331249999997,-0.089894291666666667,-3.6856659583333333
1403636580163555584,0.008377580409572781,-0.05166174585903216,0.12775810124598494,9.6513780416666659,-0.26968287499999999,-3.5549106249999998
1403636580168555520,0.013962634015954637,-0.069813170079773182,0.12566370614359174,9.5614837499999989,-0.49850470833333332,-3.3832942499999996
1403636580173555456,0.025132741228718346,-0.074700091985357306,0.1291543646475804,9.6350336250000002,-0.58839899999999989,-3.5957716666666664
1403636580178555392,0.033510321638291124,-0.07609635538695278,0.11588986233242347,9.7576167499999986,-0.41678262500000002,-3.8164212916666664
1403636580183555584,0.028623399732707,-0.064926248174189058,0.096342174710086978,9.8801998750000006,-0.3105439166666667,-3.9390044166666667
1403636580188555520,0.018849555921538759,-0.05445427266222308,0.088662726001311934,9.7576167499999986,-0.26151066666666667,-3.947176625
1403636580193555456,0.014660765716752367,-0.063529984772593598,0.07749261878854824,9.5451393333333332,-0.38409379166666668,-3.8736267500000001
1403636580198555392,0.0041887902047863905,-0.064228116473391328,0.056548667764616284,9.7085834999999996,-0.47398808333333331,-3.8981433750000001
1403636580203555584,-0.0027925268031909274,-0.075398223686155036,0.039793506945470715,9.7657889583333333,-0.4903325,-4.0043820833333328
1403636580208555520,-0.0055850536063818549,-0.08168140899333462,0.030019663134302467,9.7821333750000008,-0.55571016666666662,-3.9553488333333329
1403636580213555456,-0.0076794487087750501,-0.07819075048934597,0.027925268031909273,9.8883720833333317,-0.63743225000000003,-3.9553488333333329
1403636580218555392,-0.0076794487087750501,-0.080285145591739146,0.033510321638291124,9.8883720833333317,-0.60474341666666664,-3.92266
1403636580223555584,-0.0041887902047863905,-0.084473935796525554,0.041887902047863905,9.9700941666666658,-0.57205458333333326,-3.8899711666666663
1403636580228555520,-0.0020943951023931952,-0.073303828583761846,0.056548667764616284,9.994610791666668,-0.65377666666666667,-3.8164212916666664
1403636580233555456,-0.0027925268031909274,-0.07819075048934597,0.067020643276582248,9.8801998750000006,-0.71098212499999991,-3.7755602499999998
1403636580238555392,0.0048869219055841231,-0.078888882190143686,0.071907565182166372,9.8393388333333327,-0.66194887499999999,-3.7592158333333332
1403636580243555584,0.01117010721276371,-0.080983277292536876,0.071209433481368656,9.7249279166666671,-0.6292600416666666,-3.7510436249999999
1403636580248555520,0.010471975511965976,-0.092851516206098328,0.069115038378975438,9.7903055833333319,-0.52302133333333334,-3.8164212916666664
1403636580253555456,0.0062831853071795866,-0.094945911308491532,0.060039326268604934,9.822994416666667,-0.392266,-3.881798958333333
1403636580258555392,0.0027925268031909274,-0.094247779607693802,0.050265482457436693,9.7657889583333333,-0.41678262500000002,-3.9635210416666666
1403636580263555584,0.0027925268031909274,-0.10053096491487339,0.039793506945470715,9.872027666666666,-0.40861041666666664,-4.0534153333333327
1403636580268555520,-0.0027925268031909274,-0.099832833214075656,0.024434609527920613,9.7821333750000008,-0.40043820833333332,-4.1106207916666664
1403636580273555456,-0.010471975511965976,-0.1075122819228507,0.0069813170079773184,9.7657889583333333,-0.42495483333333334,-4.1759984583333329
1403636580278555392,-0.014660765716752367,-0.12147491593880534,-0.0076794487087750501,9.831166624999998,-0.31871612500000002,-4.2495483333333333
1403636580283555584,-0.017453292519943295,-0.12566370614359174,-0.018849555921538759,9.7903055833333319,-0.29419949999999995,-4.2577205416666661
1403636580288555520,-0.020943951023931952,-0.13753194505715316,-0.033510321638291124,9.7657889583333333,-0.31871612500000002,-4.3067537916666661
1403636580293555456,-0.02722713633111154,-0.14381513036433274,-0.043982297150257102,9.7821333750000008,-0.35140495833333335,-4.3312704166666665
1403636580298555392,-0.02722713633111154,-0.15428710587629874,-0.046774823953448029,9.6922390833333321,-0.34323275000000003,-4.2250317083333329
1403636580303555584,-0.020245819323134219,-0.1556833692778942,-0.042586033748661642,9.6350336250000002,-0.45764366666666667,-4.1759984583333329
1403636580308555520,-0.0090757121103705145,-0.15987215948268058,-0.032812189937493394,9.5451393333333332,-0.51484912499999991,-4.0697597499999993
1403636580313555456,0.00069813170079773186,-0.17592918860102841,-0.016057029118347832,9.3898673749999997,-0.58022679166666657,-3.9798654583333328
1403636580318555392,0.013264502315156905,-0.18570303241219666,0.010471975511965976,9.332661916666666,-0.6701210833333332,-3.906315583333333
1403636580323555584,0.030019663134302467,-0.1954768762233649,0.028623399732707,9.3408341249999989,-0.71915433333333334,-3.8736267500000001
1403636580328555520,0.042586033748661642,-0.19687313962496036,0.044680428851054839,9.3735229583333322,-0.75184316666666662,-3.8491101249999997
1403636580333555456,0.050265482457436693,-0.19687313962496036,0.060737457969402671,9.5696559583333336,-0.65377666666666667,-3.906315583333333
1403636580338555392,0.057944931166211737,-0.20036379812894903,0.069115038378975438,9.6840668749999992,-0.48216029166666663,-3.9880376666666666
1403636580343555584,0.058643062867009467,-0.19757127132575814,0.07958701389094143,9.6840668749999992,-0.34323275000000003,-4.0207264999999994
1403636580348555520,0.043982297150257102,-0.20245819323134223,0.091455252804502868,9.6840668749999992,-0.29419949999999995,-4.0125542916666666
1403636580353555456,0.034208453339088861,-0.21083577364091499,0.097040306410884708,9.6840668749999992,-0.23699404166666665,-4.0207264999999994
1403636580358555392,0.022340214425527419,-0.22759093446006054,0.095644043009289262,9.7167557083333325,-0.17978858333333333,-4.0288987083333332
1403636580363555584,0.010471975511965976,-0.23527038316883564,0.089360857702109678,9.7903055833333319,-0.20430520833333332,-4.0452431249999998
1403636580368555520,0.00069813170079773186,-0.24504422698000386,0.074700091985357306,9.8965442916666664,-0.20430520833333332,-4.1106207916666664
1403636580373555456,-0.010471975511965976,-0.25761059759436306,0.057944931166211737,10.019127416666667,-0.17161637500000002,-4.1024485833333335
1403636580378555392,-0.016755160819145562,-0.26459191460234038,0.034208453339088861,10.068160666666666,-0.22064962499999999,-4.126965208333333
1403636580383555584,-0.023038346126325153,-0.27087509990951991,0.019547687622336492,10.084505083333333,-0.22882183333333334,-4.1106207916666664
1403636580388555520,-0.025132741228718346,-0.28274333882308139,0.0062831853071795866,10.068160666666666,-0.24516625,-4.0452431249999998
1403636580393555456,-0.023736477827122883,-0.29251718263424964,0.00069813170079773186,10.027299624999999,-0.3350605416666666,-4.0615875416666665
1403636580398555392,-0.016057029118347832,-0.30298915814621558,0.00069813170079773186,10.084505083333333,-0.43312704166666666,-4.1351374166666668
1403636580403555584,-0.008377580409572781,-0.31346113365818162,0.01117010721276371,10.166227166666665,-0.4494714583333333,-4.1596540416666663
1403636580408555520,0.0048869219055841231,-0.31555552876057474,0.018151424220741029,10.141710541666667,-0.51484912499999991,-4.2332039166666666
1403636580413555456,0.008377580409572781,-0.31974431896536115,0.02722713633111154,10.223432624999999,-0.53936574999999998,-4.3149259999999998
1403636580418555392,0.019547687622336492,-0.32253684576855213,0.040491638646268438,10.313326916666666,-0.49850470833333332,-4.4129924999999997
1403636580423555584,0.020943951023931952,-0.32253684576855213,0.045378560551852569,10.305154708333331,-0.58839899999999989,-4.4211647083333325
1403636580428555520,0.025132741228718346,-0.32672563597333848,0.049567350756638949,10.452254458333334,-0.61291562499999996,-4.4947145833333328
1403636580433555456,0.023736477827122883,-0.33091442617812489,0.060737457969402671,10.484943291666665,-0.51484912499999991,-4.4701979583333324
1403636580438555392,0.023736477827122883,-0.33091442617812489,0.071907565182166372,10.550320958333334,-0.53119354166666666,-4.5192312083333332
1403636580443555584,0.020943951023931952,-0.33300882128051806,0.080983277292536876,10.672904083333334,-0.44129924999999998,-4.5519200416666665
1403636580448555520,0.013264502315156905,-0.33649947978450673,0.094247779607693802,10.836348249999999,-0.3350605416666666,-4.5110590000000004
1403636580453555456,0.0069813170079773184,-0.3344050846821135,0.10053096491487339,10.893553708333332,-0.32688833333333334,-4.5519200416666665
1403636580458555392,-0.0027925268031909274,-0.32742376767413622,0.097738438111682452,10.999792416666665,-0.35957716666666667,-4.5682644583333332
1403636580463555584,-0.0090757121103705145,-0.32253684576855213,0.092153384505300612,11.073342291666666,-0.36774937499999999,-4.6172977083333331
1403636580468555520,-0.013264502315156905,-0.3204424506661589,0.084473935796525554,11.03248125,-0.35957716666666667,-4.5846088749999998
1403636580473555456,-0.0153588974175501,-0.31625366046137249,0.071209433481368656,11.048825666666666,-0.38409379166666668,-4.6990197916666663
1403636580478555392,-0.014660765716752367,-0.3239331091701475,0.068416906678177722,11.106031124999999,-0.3105439166666667,-4.7480530416666662
1403636580483555584,-0.012566370614359173,-0.32812189937493397,0.062133721370998138,11.179580999999999,-0.31871612500000002,-4.8216029166666665
1403636580488555520,-0.016755160819145562,-0.32742376767413622,0.055850536063818547,11.424747249999999,-0.38409379166666668,-4.9523582499999996
1403636580493555456,-0.010471975511965976,-0.33231068957972032,0.058643062867009467,11.588191416666666,-0.38409379166666668,-5.0177359166666671
1403636580498555392,0.0041887902047863905,-0.3295181627765294,0.062831853071795868,11.710774541666666,-0.46581587499999999,-5.0831135833333327
1403636580503555584,0.016755160819145562,-0.32323497746934982,0.07609635538695278,11.898735333333333,-0.58839899999999989,-5.1730078749999997
1403636580508555520,0.0307177948351002,-0.31136673855578839,0.097738438111682452,12.103040541666665,-0.50667691666666659,-5.2792465833333333
1403636580513555456,0.046076692252650306,-0.3057816849494065,0.11868238913561441,12.127557166666666,-0.4903325,-5.336452041666667
1403636580518555392,0.050963614158234416,-0.29042278753185646,0.13683381335635544,12.119384958333333,-0.48216029166666663,-5.4100019166666664
1403636580523555584,0.056548667764616284,-0.27925268031909273,0.14800392056911915,12.176590416666667,-0.40043820833333332,-5.4590351666666663
1403636580528555520,0.05166174585903216,-0.26947883650792448,0.15009831567151233,12.119384958333333,-0.27785508333333331,-5.5325850416666666
1403636580533555456,0.047472955654245766,-0.25970499269675623,0.14521139376592823,12.078523916666667,-0.29419949999999995,-5.5652738749999999
1403636580538555392,0.040491638646268438,-0.24923301718479024,0.13124875974997358,12.094868333333332,-0.27785508333333331,-5.6224793333333336
1403636580543555584,0.034906585039886591,-0.23457225146803787,0.1228711793404008,11.996801833333333,-0.3105439166666667,-5.6388237499999994
1403636580548555520,0.029321531433504733,-0.21572269554649914,0.11170107212763709,12.01314625,-0.36774937499999999,-5.6143071249999998
1403636580553555456,0.023736477827122883,-0.19966566642815131,0.099832833214075656,11.988629624999998,-0.40043820833333332,-5.6796847916666664
1403636580558555392,0.028623399732707,-0.18430676901060122,0.095644043009289262,11.955940791666666,-0.41678262500000002,-5.6224793333333336
1403636580563555584,0.032812189937493394,-0.16615534478986016,0.091455252804502868,12.004974041666665,-0.47398808333333331,-5.5979627083333323
1403636580568555520,0.033510321638291124,-0.14660765716752369,0.089360857702109678,12.086696124999998,-0.56388237500000005,-5.6224793333333336
1403636580573555456,0.046774823953448029,-0.1361356816555577,0.090757121103705138,12.168418208333332,-0.56388237500000005,-5.6306515416666665
1403636580578555392,0.057246799465414,-0.12007865253720987,0.097040306410884708,12.241968083333333,-0.60474341666666664,-5.5979627083333323
1403636580583555584,0.064926248174189058,-0.10332349171806432,0.10262536001726656,12.372723416666666,-0.58022679166666657,-5.5979627083333323
1403636580588555520,0.067020643276582248,-0.086568330898918744,0.10890854532444616,12.397240041666667,-0.48216029166666663,-5.6306515416666665
1403636580593555456,0.066322511575784518,-0.062831853071795868,0.11309733552923257,12.348206791666668,-0.51484912499999991,-5.6143071249999998
1403636580598555392,0.066322511575784518,-0.043284165449459372,0.11309733552923257,12.307345749999998,-0.56388237500000005,-5.6224793333333336
1403636580603555584,0.064228116473391328,-0.029321531433504733,0.11588986233242347,12.20927925,-0.4903325,-5.6306515416666665
1403636580608555520,0.055850536063818547,-0.0069813170079773184,0.11030480872604163,12.070351708333332,-0.46581587499999999,-5.6224793333333336
1403636580613555456,0.044680428851054839,0.0069813170079773184,0.1054178868204575,11.923251958333333,-0.46581587499999999,-5.6061349166666661
1403636580618555392,0.036302848441482058,0.021642082724729686,0.097738438111682452,11.825185458333332,-0.40043820833333332,-5.5571016666666662
1403636580623555584,0.023736477827122883,0.036302848441482058,0.090757121103705138,11.645396874999999,-0.43312704166666666,-5.5080684166666662
1403636580628555520,0.011868238913561441,0.048171087355043489,0.080983277292536876,11.555502583333332,-0.55571016666666662,-5.4508629583333326
1403636580633555456,0.00069813170079773186,0.063529984772593598,0.072605696882964116,11.620880249999999,-0.55571016666666662,-5.3854852916666669
1403636580638555392,-0.0041887902047863905,0.074001960284559576,0.068416906678177722,11.514641541666665,-0.60474341666666664,-5.3201076249999995
1403636580643555584,-0.008377580409572781,0.08168140899333462,0.066322511575784518,11.547330375,-0.68646550000000006,-5.2629021666666658
1403636580648555520,-0.013264502315156905,0.097738438111682452,0.064926248174189058,11.653569083333332,-0.59657120833333332,-5.2710743749999995
1403636580653555456,-0.013962634015954637,0.10611601852125524,0.063529984772593598,11.629052458333332,-0.56388237500000005,-5.1975245000000001
1403636580658555392,-0.017453292519943295,0.11798425743481668,0.058643062867009467,11.629052458333332,-0.49850470833333332,-5.1076302083333331
1403636580663555584,-0.022340214425527419,0.12636183784438945,0.055850536063818547,11.686257916666666,-0.4494714583333333,-5.115802416666666
1403636580668555520,-0.028623399732707,0.13683381335635544,0.046774823953448029,11.645396874999999,-0.34323275000000003,-5.0831135833333327
1403636580673555456,-0.034208453339088861,0.14800392056911915,0.034906585039886591,11.539158166666667,-0.31871612500000002,-5.074941374999999
1403636580678555392,-0.043284165449459372,0.16196655458507375,0.018849555921538759,11.481952708333333,-0.26151066666666667,-5.0994580000000003
1403636580683555584,-0.055850536063818547,0.17104226669544431,0.0069813170079773184,11.343025166666667,-0.11441091666666667,-5.0994580000000003
1403636580688555520,-0.066322511575784518,0.18151424220741028,-0.0020943951023931952,11.204097624999999,-0.089894291666666667,-5.0912857916666665
1403636580693555456,-0.076794487087750496,0.19338248112097173,-0.010471975511965976,11.048825666666666,-0.122583125,-5.074941374999999
1403636580698555392,-0.080285145591739146,0.1954768762233649,-0.018151424220741029,10.844520458333331,-0.17161637500000002,-4.9932192916666667
1403636580703555584,-0.08307767239493008,0.2059488517353309,-0.027925268031909273,10.738281749999999,-0.29419949999999995,-5.0013914999999995
1403636580708555520,-0.086568330898918744,0.20874137853852182,-0.039793506945470715,10.803659416666665,-0.35957716666666667,-4.9850470833333329
1403636580713555456,-0.084473935796525554,0.21362830044410594,-0.041189770347066175,10.754626166666666,-0.34323275000000003,-4.9114972083333335
1403636580718555392,-0.085172067497323284,0.22479840765686968,-0.043982297150257102,10.721937333333331,-0.31871612500000002,-4.7889140833333332
1403636580723555584,-0.08377580409572781,0.22828906616085831,-0.049567350756638949,10.762798374999999,-0.32688833333333334,-4.75622525
1403636580728555520,-0.086568330898918744,0.23177972466484695,-0.049567350756638949,10.885381500000001,-0.24516625,-4.7153642083333329
1403636580733555456,-0.091455252804502868,0.23457225146803787,-0.046076692252650306,10.893553708333332,-0.17978858333333333,-4.6418143333333326
1403636580738555392,-0.096342174710086978,0.23596851486963336,-0.038397243543875248,10.958931374999999,-0.16344416666666667,-4.6254699166666668
1403636580743555584,-0.10611601852125524,0.23596851486963336,-0.032114058236695664,11.016136833333332,-0.122583125,-4.5846088749999998
1403636580748555520,-0.1096066770252439,0.23876104167282428,-0.033510321638291124,11.016136833333332,-0.17161637500000002,-4.5437478333333328
1403636580753555456,-0.12077678423800758,0.24434609527920614,-0.044680428851054839,11.03248125,-0.18796079166666665,-4.6009532916666664
1403636580758555392,-0.13473941825396224,0.24993114888558801,-0.050265482457436693,10.942586958333331,-0.196133,-4.6581587499999992
1403636580763555584,-0.13753194505715316,0.25970499269675623,-0.056548667764616284,10.6892485,-0.28602729166666663,-4.6499865416666664
1403636580768555520,-0.14032447186034408,0.26878070480712674,-0.05305800926062762,10.476771083333333,-0.32688833333333334,-4.6745031666666668
1403636580773555456,-0.13962634015954636,0.27087509990951991,-0.041887902047863905,10.288810291666666,-0.41678262500000002,-4.6990197916666663
1403636580778555392,-0.13823007675795088,0.27576202181510412,-0.035604716740684328,9.9782663750000005,-0.32688833333333334,-4.6908475833333334
1403636580783555584,-0.13334315485236678,0.28344147052387908,-0.028623399732707,9.8556832499999985,-0.36774937499999999,-4.6826753749999996
1403636580788555520,-0.13683381335635544,0.2869321290278678,-0.029321531433504733,9.831166624999998,-0.3350605416666666,-4.7480530416666662
1403636580793555456,-0.14381513036433274,0.28413960222467688,-0.034906585039886591,9.8475110416666656,-0.20430520833333332,-4.7317086249999996
1403636580798555392,-0.1556833692778942,0.28413960222467688,-0.048869219055841226,9.872027666666666,-0.3105439166666667,-4.6581587499999992
1403636580803555584,-0.16824973989225336,0.29042278753185646,-0.069813170079773182,9.9700941666666658,-0.34323275000000003,-4.6172977083333331
1403636580808555520,-0.17383479349863523,0.29251718263424964,-0.072605696882964116,10.019127416666667,-0.32688833333333334,-4.5519200416666665
1403636580813555456,-0.17732545200262387,0.29391344603584507,-0.067718774977379978,10.027299624999999,-0.32688833333333334,-4.4293369166666663
1403636580818555392,-0.18151424220741028,0.3008947630438224,-0.05166174585903216,10.125366124999999,-0.3105439166666667,-4.3394426250000002
1403636580823555584,-0.1864011641129944,0.30019663134302466,-0.034906585039886591,10.231604833333332,-0.29419949999999995,-4.2740649583333337
1403636580828555520,-0.19477874452256716,0.30438542154781112,-0.027925268031909273,10.24794925,-0.25333845833333329,-4.1841706666666667
1403636580833555456,-0.19896753472735357,0.31136673855578839,-0.032812189937493394,10.182571583333333,-0.22064962499999999,-4.1433096249999997
1403636580838555392,-0.20664698343612864,0.32532937257174299,-0.040491638646268438,10.035471833333334,-0.17978858333333333,-4.1351374166666668
1403636580843555584,-0.2150245638457014,0.33300882128051806,-0.046774823953448029,9.7494445416666657,-0.024516625,-4.0779319583333331
1403636580848555520,-0.22479840765686968,0.33649947978450673,-0.057944931166211737,9.4961060833333324,0.024516625,-4.0779319583333331
1403636580853555456,-0.23736477827122882,0.3385938748868999,-0.074700091985357306,9.2100787916666658,0.032688833333333334,-4.0615875416666665
1403636580858555392,-0.24853488548399255,0.33649947978450673,-0.07609635538695278,8.9403959166666649,-0.016344416666666667,-4.0615875416666665
1403636580863555584,-0.25202554398798116,0.33719761148530447,-0.073303828583761846,8.7197462916666666,-0.14709974999999997,-4.0452431249999998
1403636580868555520,-0.25551620249196988,0.3344050846821135,-0.072605696882964116,8.6380242083333325,-0.22882183333333334,-4.0534153333333327
1403636580873555456,-0.24853488548399255,0.33161255787892263,-0.072605696882964116,8.482752249999999,-0.28602729166666663,-4.0043820833333328
1403636580878555392,-0.24713862208239704,0.33231068957972032,-0.074700091985357306,8.4664078333333332,-0.37592158333333331,-3.9308322083333329
1403636580883555584,-0.23945917337362199,0.32742376767413622,-0.074700091985357306,8.5399577083333327,-0.43312704166666666,-3.9798654583333328
1403636580888555520,-0.23038346126325149,0.32882003107573171,-0.072605696882964116,8.6135075833333321,-0.47398808333333331,-3.9553488333333329
1403636580893555456,-0.22200588085367873,0.32323497746934982,-0.062831853071795868,8.6788852500000004,-0.5475379583333333,-3.881798958333333
1403636580898555392,-0.20874137853852182,0.32742376767413622,-0.050265482457436693,8.8423294166666651,-0.60474341666666664,-3.8654545416666664
1403636580903555584,-0.19058995431778078,0.3239331091701475,-0.036302848441482058,8.9403959166666649,-0.61291562499999996,-3.8245934999999998
1403636580908555520,-0.17243853009703977,0.32253684576855213,-0.018151424220741029,8.9976013749999986,-0.52302133333333334,-3.7510436249999999
1403636580913555456,-0.14800392056911915,0.32812189937493397,0.0,9.0139457916666661,-0.50667691666666659,-3.6856659583333333
1403636580918555392,-0.13194689145077129,0.32742376767413622,0.012566370614359173,9.0139457916666661,-0.37592158333333331,-3.7428714166666661
1403636580923555584,-0.11798425743481668,0.33161255787892263,0.018151424220741029,8.8259849999999993,-0.29419949999999995,-3.702010375
1403636580928555520,-0.10332349171806432,0.3392920065876977,0.018849555921538759,8.6461964166666672,-0.29419949999999995,-3.67749375
1403636580933555456,-0.099134701513277898,0.33719761148530447,0.018849555921538759,8.4010301666666667,-0.22882183333333334,-3.6693215416666662
1403636580938555392,-0.091455252804502868,0.33161255787892263,0.016755160819145562,8.204897166666667,-0.13075533333333333,-3.6856659583333333
1403636580943555584,-0.084473935796525554,0.3344050846821135,0.013264502315156905,8.1558639166666662,-0.089894291666666667,-3.7346992083333332
1403636580948555520,-0.075398223686155036,0.33091442617812489,0.0041887902047863905,8.1640361249999991,-0.016344416666666667,-3.7755602499999998
1403636580953555456,-0.072605696882964116,0.32323497746934982,-0.0069813170079773184,8.1231750833333329,0.122583125,-3.7510436249999999
1403636580958555392,-0.069115038378975438,0.314857397059777,-0.019547687622336492,8.0741418333333339,0.22064962499999999,-3.6448049166666663
1403636580963555584,-0.071907565182166372,0.30857421175259747,-0.033510321638291124,8.1150028750000001,0.22064962499999999,-3.5467384166666669
1403636580968555520,-0.069115038378975438,0.30508355324860881,-0.032812189937493394,8.1476917083333333,0.23699404166666665,-3.4650163333333333
1403636580973555456,-0.055850536063818547,0.30647981665020424,-0.024434609527920613,8.0577974166666664,0.13892754166666665,-3.4159830833333329
1403636580978555392,-0.043982297150257102,0.30787608005179973,-0.0027925268031909274,8.0659696249999993,-0.040861041666666667,-3.3587776250000001
1403636580983555584,-0.023736477827122883,0.30438542154781112,0.014660765716752367,7.9924197499999989,-0.15527195833333335,-3.3015721666666664
1403636580988555520,-0.0069813170079773184,0.31066860685499065,0.023736477827122883,7.9106976666666657,-0.18796079166666665,-3.1953334583333328
1403636580993555456,0.0055850536063818549,0.30857421175259747,0.036302848441482058,7.9924197499999989,-0.25333845833333329,-3.2116778749999999
1403636580998555392,0.020943951023931952,0.30159289474462014,0.05166174585903216,7.9924197499999989,-0.21247741666666667,-3.2525389166666665
1403636581003555584,0.029321531433504733,0.29321531433504738,0.074700091985357306,7.9433864999999999,-0.13892754166666665,-3.1789890416666662
1403636581008555520,0.034906585039886591,0.28763026072866549,0.098436569812480182,7.8861810416666662,-0.10623870833333333,-3.1299557916666663
1403636581013555456,0.039095375244672985,0.28064894372068816,0.12775810124598494,8.0659696249999993,-0.032688833333333334,-3.1299557916666663
1403636581018555392,0.038397243543875248,0.28204520712228365,0.15358897417550099,8.2702748333333336,0.024516625,-3.2035056666666666
1403636581023555584,0.040491638646268438,0.29251718263424964,0.16615534478986016,8.4255467916666653,0.024516625,-3.1953334583333328
1403636581028555520,0.039793506945470715,0.3008947630438224,0.16196655458507375,8.5317854999999998,0.11441091666666667,-3.3506054166666663
1403636581033555456,0.040491638646268438,0.30229102644541789,0.14241886696273731,8.5317854999999998,0.30237170833333332,-3.366949833333333
1403636581038555392,0.037000980142279788,0.30647981665020424,0.11728612573401893,8.4255467916666653,0.43312704166666666,-3.3506054166666663
1403636581043555584,0.033510321638291124,0.29949849964222697,0.08307767239493008,8.392857958333332,0.50667691666666659,-3.342433208333333
1403636581048555520,0.02583087292951608,0.28832839242946323,0.063529984772593598,8.3111358749999997,0.65377666666666667,-3.3751220416666667
1403636581053555456,0.018849555921538759,0.27855454861829498,0.05445427266222308,8.3274802916666655,0.69463770833333327,-3.3179165833333331
1403636581058555392,0.010471975511965976,0.27715828521669955,0.045378560551852569,8.3519969166666659,0.55571016666666662,-3.2933999583333331
1403636581063555584,0.0027925268031909274,0.27157323161031771,0.038397243543875248,8.3765135416666663,0.4903325,-3.2525389166666665
1403636581068555520,0.0020943951023931952,0.27087509990951991,0.033510321638291124,8.3111358749999997,0.37592158333333331,-3.1299557916666663
1403636581073555456,-0.00069813170079773186,0.28064894372068816,0.032812189937493394,8.2702748333333336,0.3105439166666667,-3.0482337083333335
1403636581078555392,-0.0097738438111682462,0.28274333882308139,0.043284165449459372,8.1967249583333324,0.25333845833333329,-3.0318892916666664
1403636581083555584,-0.012566370614359173,0.2778564169174973,0.064228116473391328,8.0659696249999993,0.196133,-2.8847895416666667
1403636581088555520,-0.018849555921538759,0.27855454861829498,0.098436569812480182,7.9679031249999994,0.10623870833333333,-2.7785508333333331
1403636581093555456,-0.023736477827122883,0.27715828521669955,0.14102260356114182,8.0251085833333331,0.0,-2.7948952499999997
1403636581098555392,-0.034208453339088861,0.28413960222467688,0.17802358370342161,8.0823140416666668,0.016344416666666667,-2.8194118749999997
1403636581103555584,-0.039793506945470715,0.29810223624063148,0.20385445663293766,8.2130693749999999,0.089894291666666667,-2.827584083333333
1403636581108555520,-0.050265482457436693,0.31276300195738388,0.23038346126325149,8.2375859999999985,0.057205458333333334,-2.8929617499999996
1403636581113555456,-0.060039326268604934,0.32812189937493397,0.23806290997202653,8.1558639166666662,0.024516625,-2.9093061666666666
1403636581118555392,-0.055850536063818547,0.33510321638291124,0.24434609527920614,7.9760753333333332,0.016344416666666667,-2.9174783749999995
1403636581123555584,-0.050265482457436693,0.33719761148530447,0.24504422698000386,7.9679031249999994,0.04903325,-3.0318892916666664
1403636581128555520,-0.044680428851054839,0.34278266509168631,0.23876104167282428,8.0823140416666668,0.14709974999999997,-3.1871612499999999
1403636581133555456,-0.034208453339088861,0.3392920065876977,0.23108159296404923,8.0251085833333331,0.23699404166666665,-3.2607111249999998
1403636581138555392,-0.02652900463031381,0.34417892849328174,0.21851522234969004,8.0414529999999989,0.28602729166666663,-3.3342610000000001
1403636581143555584,-0.016057029118347832,0.3392920065876977,0.19687313962496036,8.0741418333333339,0.40861041666666664,-3.366949833333333
1403636581148555520,-0.010471975511965976,0.3385938748868999,0.17034413499464657,8.0414529999999989,0.46581587499999999,-3.2933999583333331
1403636581153555456,0.0013962634015954637,0.33649947978450673,0.14660765716752369,7.9760753333333332,0.41678262500000002,-3.1789890416666662
1403636581158555392,0.0069813170079773184,0.32882003107573171,0.1228711793404008,7.9597309166666657,0.45764366666666667,-3.1054391666666663
1403636581163555584,0.013962634015954637,0.3302162944773272,0.11519173063162574,7.9025254583333329,0.44129924999999998,-3.0237170833333331
1403636581168555520,0.010471975511965976,0.33161255787892263,0.11239920382843484,7.8208033749999997,0.40043820833333332,-2.9828560416666661
1403636581173555456,0.0069813170079773184,0.33580134808370898,0.11588986233242347,7.8453200000000001,0.35957716666666667,-2.9665116249999999
1403636581178555392,-0.00069813170079773186,0.3392920065876977,0.11938052083641214,7.8289755833333325,0.28602729166666663,-2.9174783749999995
1403636581183555584,-0.0090757121103705145,0.34348079679248406,0.12845623294678266,7.7145646666666661,0.17978858333333333,-2.8112396666666668
1403636581188555520,-0.021642082724729686,0.34627332359567498,0.13892820845874865,7.7063924583333332,0.057205458333333334,-2.7703786249999998
1403636581193555456,-0.034906585039886591,0.34417892849328174,0.15917402778188286,7.7145646666666661,-0.040861041666666667,-2.7050009583333332
1403636581198555392,-0.046076692252650306,0.34417892849328174,0.18221237390820799,7.7881145416666664,-0.089894291666666667,-2.6559677083333328
1403636581203555584,-0.052359877559829883,0.35534903570604548,0.19966566642815131,7.9188698749999995,-0.22882183333333334,-2.6477955
1403636581208555520,-0.05375614096142535,0.36302848441482055,0.21921335405048781,8.0823140416666668,-0.27785508333333331,-2.7376897916666665
1403636581213555456,-0.052359877559829883,0.37699111843077521,0.23527038316883564,8.1150028750000001,-0.26151066666666667,-2.7948952499999997
1403636581218555392,-0.043982297150257102,0.39793506945470714,0.24504422698000386,8.0577974166666664,-0.17978858333333333,-2.8602729166666667
1403636581223555584,-0.034208453339088861,0.40491638646268446,0.23876104167282428,7.9597309166666657,-0.089894291666666667,-2.9665116249999999
1403636581228555520,-0.02722713633111154,0.40142572795869574,0.2241002759560719,7.8453200000000001,0.016344416666666667,-2.9828560416666661
1403636581233555456,-0.019547687622336492,0.39095375244672981,0.21083577364091499,7.6410147916666666,0.040861041666666667,-2.9828560416666661
1403636581238555392,-0.0076794487087750501,0.37768925013157295,0.19338248112097173,7.5592927083333334,0.0,-2.9992004583333332
1403636581243555584,0.0020943951023931952,0.36302848441482055,0.17104226669544431,7.5674649166666654,0.024516625,-2.9910282499999998
1403636581248555520,0.017453292519943295,0.35465090400524774,0.14800392056911915,7.583809333333333,-0.024516625,-3.0073726666666665
1403636581253555456,0.033510321638291124,0.35185837720205682,0.12217304763960307,7.5919815416666658,-0.081722083333333334,-2.9828560416666661
1403636581258555392,0.043284165449459372,0.35116024550125913,0.097040306410884708,7.5102594583333335,-0.0081722083333333334,-2.9093061666666666
1403636581263555584,0.05166174585903216,0.35116024550125913,0.07749261878854824,7.2650932083333331,0.032688833333333334,-2.7622064166666664
1403636581268555520,0.052359877559829883,0.35046211380046133,0.058643062867009467,6.9790659166666664,0.04903325,-2.6559677083333328
1403636581273555456,0.048869219055841226,0.33999013828849539,0.046076692252650306,6.8564827916666671,0.040861041666666667,-2.6477955
1403636581278555392,0.036302848441482058,0.32742376767413622,0.0307177948351002,6.684866416666666,0.024516625,-2.5497290000000001
1403636581283555584,0.021642082724729686,0.3246312408709453,0.023736477827122883,6.5377666666666663,-0.032688833333333334,-2.4598347083333332
1403636581288555520,0.0048869219055841231,0.31625366046137249,0.02652900463031381,6.4233557499999998,-0.11441091666666667,-2.4108014583333333
1403636581293555456,-0.008377580409572781,0.3204424506661589,0.034906585039886591,6.3171170416666662,-0.16344416666666667,-2.3127349583333334
1403636581298555392,-0.014660765716752367,0.31695179216217023,0.044680428851054839,6.2027061249999988,-0.35957716666666667,-2.1166019583333333
1403636581303555584,-0.023038346126325153,0.30927234345339516,0.057246799465414,6.235394958333333,-0.53936574999999998,-2.0267076666666664
1403636581308555520,-0.022340214425527419,0.30787608005179973,0.070511301780570912,6.2926004166666667,-0.52302133333333334,-1.9776744166666664
1403636581313555456,-0.018151424220741029,0.29810223624063148,0.085870199198121014,6.2762560000000001,-0.52302133333333334,-1.8877801249999999
1403636581318555392,-0.016755160819145562,0.29321531433504738,0.098436569812480182,6.32528925,-0.392266,-1.8224024583333331
1403636581323555584,-0.0153588974175501,0.2778564169174973,0.10681415022205297,6.3089448333333324,-0.21247741666666667,-1.7978858333333332
1403636581328555520,-0.012566370614359173,0.26040312439755398,0.10681415022205297,6.2762560000000001,-0.04903325,-1.7651969999999999
1403636581333555456,-0.019547687622336492,0.24993114888558801,0.10192722831646883,6.2517393749999988,-0.0081722083333333334,-1.6998193333333333
1403636581338555392,-0.020943951023931952,0.22968532956245377,0.092153384505300612,6.2272227500000001,0.024516625,-1.7079915416666664
1403636581343555584,-0.023038346126325153,0.21781709064889232,0.080983277292536876,6.1618450833333327,0.089894291666666667,-1.7161637499999998
1403636581348555520,-0.02652900463031381,0.20036379812894903,0.065624379874986788,6.055606375,0.16344416666666667,-1.6998193333333333
1403636581353555456,-0.0307177948351002,0.18709929581379212,0.046076692252650306,5.9738842916666659,0.3105439166666667,-1.6916471249999998
1403636581358555392,-0.044680428851054839,0.16545721308906244,0.027925268031909273,5.9166788333333331,0.4903325,-1.6998193333333333
1403636581363555584,-0.059341194567807204,0.14660765716752369,0.01117010721276371,5.8186123333333333,0.50667691666666659,-1.6834749166666665
1403636581368555520,-0.074700091985357306,0.1270599695451872,-0.0034906585039886592,5.8676455833333332,0.43312704166666666,-1.6916471249999998
1403636581373555456,-0.085870199198121014,0.11170107212763709,-0.014660765716752367,5.8921622083333327,0.3350605416666666,-1.6834749166666665
1403636581378555392,-0.091455252804502868,0.097040306410884708,-0.032114058236695664,5.8839899999999998,0.20430520833333332,-1.7079915416666664
1403636581383555584,-0.092851516206098328,0.08307767239493008,-0.039793506945470715,5.9330232499999997,0.11441091666666667,-1.7815414166666665
1403636581388555520,-0.094945911308491532,0.072605696882964116,-0.038397243543875248,5.9166788333333331,0.073549874999999987,-1.838746875
1403636581393555456,-0.095644043009289262,0.055850536063818547,-0.031415926535897934,5.8676455833333332,0.122583125,-1.7897136249999999
1403636581398555392,-0.096342174710086978,0.048171087355043489,-0.02722713633111154,5.7940957083333329,0.057205458333333334,-1.7488525833333333
1403636581403555584,-0.092851516206098328,0.029321531433504733,-0.020943951023931952,5.8104401249999995,-0.065377666666666667,-1.6834749166666665
1403636581408555520,-0.087266462599716474,0.010471975511965976,-0.01117010721276371,5.8022679166666666,-0.11441091666666667,-1.6180972499999999
1403636581413555456,-0.078888882190143686,-0.0055850536063818549,-0.0062831853071795866,5.834956749999999,-0.15527195833333335,-1.5363751666666667
1403636581418555392,-0.069813170079773182,-0.024434609527920613,-0.0048869219055841231,5.9657120833333321,-0.17161637500000002,-1.4464808749999998
1403636581423555584,-0.058643062867009467,-0.043284165449459372,-0.0041887902047863905,5.9902287083333334,-0.13892754166666665,-1.3811032083333332
1403636581428555520,-0.050963614158234416,-0.052359877559829883,-0.0069813170079773184,5.9984009166666663,-0.057205458333333334,-1.3320699583333333
1403636581433555456,-0.041189770347066175,-0.058643062867009467,-0.020245819323134219,6.055606375,-0.024516625,-1.3484143749999999
1403636581438555392,-0.041887902047863905,-0.071209433481368656,-0.037000980142279788,6.0474341666666662,0.040861041666666667,-1.4464808749999998
1403636581443555584,-0.046774823953448029,-0.085870199198121014,-0.05305800926062762,5.9902287083333334,0.057205458333333334,-1.4464808749999998
1403636581448555520,-0.047472955654245766,-0.094945911308491532,-0.060737457969402671,5.9330232499999997,0.057205458333333334,-1.5854084166666664
1403636581453555456,-0.048869219055841226,-0.1096066770252439,-0.070511301780570912,5.9984009166666663,0.13075533333333333,-1.7161637499999998
1403636581458555392,-0.05375614096142535,-0.12775810124598494,-0.076794487087750496,5.9902287083333334,0.196133,-1.8060580416666667
1403636581463555584,-0.057246799465414,-0.14032447186034408,-0.07819075048934597,6.0801229999999995,0.17161637500000002,-1.9531577916666665
1403636581468555520,-0.063529984772593598,-0.15289084247470325,-0.078888882190143686,6.2027061249999988,0.089894291666666667,-2.0593964999999996
1403636581473555456,-0.062133721370998138,-0.16057029118347829,-0.078888882190143686,6.3171170416666662,0.040861041666666667,-2.0512242916666668
1403636581478555392,-0.060737457969402671,-0.16824973989225336,-0.070511301780570912,6.3988391249999994,-0.024516625,-1.9940188333333333
1403636581483555584,-0.060039326268604934,-0.17872171540421936,-0.062133721370998138,6.5786277083333324,-0.122583125,-1.9695022083333333
1403636581488555520,-0.05305800926062762,-0.19128808601857852,-0.043982297150257102,6.6766942083333323,-0.073549874999999987,-1.9204689583333332
1403636581493555456,-0.044680428851054839,-0.20455258833373544,-0.025132741228718346,6.7257274583333322,-0.073549874999999987,-1.7488525833333333
1403636581498555392,-0.039793506945470715,-0.2059488517353309,-0.0020943951023931952,6.8564827916666671,0.032688833333333334,-1.6262694583333333
1403636581503555584,-0.039793506945470715,-0.21851522234969004,0.02583087292951608,6.9218604583333327,0.11441091666666667,-1.5036863333333332
1403636581508555520,-0.037699111843077518,-0.22130774915288098,0.048171087355043489,6.9300326666666665,0.196133,-1.3320699583333333
1403636581513555456,-0.043284165449459372,-0.22270401255447644,0.064228116473391328,6.9382048749999994,0.089894291666666667,-1.2176590416666666
1403636581518555392,-0.043982297150257102,-0.2241002759560719,0.07958701389094143,6.9627214999999989,0.0,-1.2585200833333332
1403636581523555584,-0.043284165449459372,-0.22340214425527419,0.087964594300514204,6.9463770833333331,-0.122583125,-1.2340034583333332
1403636581528555520,-0.035604716740684328,-0.21921335405048781,0.10053096491487339,6.8728272083333328,-0.29419949999999995,-1.3484143749999999
1403636581533555456,-0.027925268031909273,-0.21572269554649914,0.11379546723003027,6.8483105833333333,-0.30237170833333332,-1.593580625
1403636581538555392,-0.023038346126325153,-0.21642082724729686,0.12985249634837812,6.733899666666666,-0.29419949999999995,-1.7488525833333333
1403636581543555584,-0.024434609527920613,-0.2199114857512855,0.15149457907310779,6.7175552500000002,-0.31871612500000002,-1.9122967499999999
1403636581548555520,-0.023736477827122883,-0.23317598806644241,0.15917402778188286,6.9872381250000002,-0.3105439166666667,-2.1411185833333333
1403636581553555456,-0.023736477827122883,-0.24434609527920614,0.16336281798666924,7.2487487916666655,-0.17161637500000002,-2.3045627499999997
1403636581558555392,-0.025132741228718346,-0.24504422698000386,0.15987215948268058,7.4612262083333336,0.032688833333333334,-2.4026292499999999
1403636581563555584,-0.019547687622336492,-0.25132741228718347,0.15638150097869194,7.8208033749999997,0.23699404166666665,-2.4761791249999998
1403636581568555520,-0.013264502315156905,-0.25481807079117208,0.1556833692778942,8.0904862499999997,0.40043820833333332,-2.5252123749999997
1403636581573555456,-0.0076794487087750501,-0.25761059759436306,0.15219271077390556,8.2784470416666665,0.40861041666666664,-2.4434902916666665
1403636581578555392,0.0,-0.24993114888558801,0.14660765716752369,8.4745800416666661,0.28602729166666663,-2.4843513333333336
1403636581583555584,0.017453292519943295,-0.2457423586808016,0.14032447186034408,8.5236132916666651,0.13892754166666665,-2.4598347083333332
1403636581588555520,0.043284165449459372,-0.23876104167282428,0.1291543646475804,8.4255467916666653,0.032688833333333334,-2.4516624999999999
1403636581593555456,0.057246799465414,-0.23457225146803787,0.11239920382843484,8.1967249583333324,0.0,-2.3944570416666666
1403636581598555392,0.070511301780570912,-0.22479840765686968,0.097738438111682452,8.0659696249999993,0.0,-2.3862848333333333
1403636581603555584,0.074700091985357306,-0.22689280275926282,0.093549647906896058,7.9433864999999999,0.040861041666666667,-2.378112625
1403636581608555520,0.08307767239493008,-0.22200588085367873,0.090757121103705138,7.7717701249999998,-0.10623870833333333,-2.3535959999999996
1403636581613555456,0.087266462599716474,-0.2150245638457014,0.1075122819228507,7.7472535000000002,-0.21247741666666667,-2.4434902916666665
1403636581618555392,0.089360857702109678,-0.20734511513692636,0.1291543646475804,7.7799423333333326,-0.20430520833333332,-2.4843513333333336
1403636581623555584,0.085870199198121014,-0.19198621771937624,0.14800392056911915,7.8208033749999997,-0.11441091666666667,-2.5497290000000001
1403636581628555520,0.071907565182166372,-0.18011797880581482,0.16615534478986016,7.9842475416666669,0.10623870833333333,-2.7131731666666665
1403636581633555456,0.049567350756638949,-0.16824973989225336,0.18570303241219666,8.1313472916666658,0.392266,-2.7703786249999998
1403636581638555392,0.024434609527920613,-0.16406094968746698,0.20176006153054449,8.2130693749999999,0.65377666666666667,-2.8357562916666668
1403636581643555584,-0.0020943951023931952,-0.1668534764906579,0.21083577364091499,8.4418912083333328,0.68646550000000006,-2.8357562916666668
1403636581648555520,-0.02652900463031381,-0.17243853009703977,0.20734511513692636,8.834157208333334,0.67829329166666663,-2.8929617499999996
1403636581653555456,-0.041189770347066175,-0.17523105690023066,0.18500490071139891,9.1528733333333321,0.57205458333333326,-2.8766173333333334
1403636581658555392,-0.05166174585903216,-0.16406094968746698,0.15358897417550099,9.4062117916666654,0.40861041666666664,-2.8602729166666667
1403636581663555584,-0.046076692252650306,-0.1556833692778942,0.11798425743481668,9.5533115416666661,0.34323275000000003,-2.9256505833333333
1403636581668555520,-0.034208453339088861,-0.14451326206513049,0.08237954069413235,9.5287949166666657,0.40861041666666664,-2.9665116249999999
1403636581673555456,-0.021642082724729686,-0.12775810124598494,0.042586033748661642,9.3244897083333331,0.40043820833333332,-2.9746838333333332
1403636581678555392,-0.0153588974175501,-0.12636183784438945,0.0055850536063818549,9.193734375,0.32688833333333334,-3.0318892916666664
1403636581683555584,-0.0034906585039886592,-0.12147491593880534,-0.028623399732707,8.9322237083333338,0.196133,-3.0645781249999997
1403636581688555520,0.012566370614359173,-0.11798425743481668,-0.046774823953448029,8.6788852500000004,-0.13075533333333333,-3.0645781249999997
1403636581693555456,0.032114058236695664,-0.11798425743481668,-0.056548667764616284,8.5072688749999994,-0.31871612500000002,-3.1463002083333333
1403636581698555392,0.055152404363020817,-0.12007865253720987,-0.042586033748661642,8.3765135416666663,-0.36774937499999999,-3.1054391666666663
1403636581703555584,0.074700091985357306,-0.10890854532444616,-0.0153588974175501,8.2294137916666656,-0.27785508333333331,-3.0564059166666664
1403636581708555520,0.090757121103705138,-0.10053096491487339,0.040491638646268438,8.3111358749999997,-0.13892754166666665,-3.0318892916666664
1403636581713555456,0.093549647906896058,-0.087266462599716474,0.092851516206098328,8.4418912083333328,-0.0081722083333333334,-3.0482337083333335
1403636581718555392,0.089360857702109678,-0.07609635538695278,0.15009831567151233,8.4909244583333336,0.081722083333333334,-3.0318892916666664
1403636581723555584,0.080983277292536876,-0.060737457969402671,0.19128808601857852,8.6625408333333329,-0.024516625,-3.0645781249999997
1403636581728555520,0.07609635538695278,-0.046076692252650306,0.21572269554649914,8.7851239583333331,-0.089894291666666667,-3.0727503333333335
1403636581733555456,0.067718774977379978,-0.039095375244672985,0.22130774915288098,8.8668460416666655,-0.16344416666666667,-3.0809225416666663
1403636581738555392,0.05305800926062762,-0.036302848441482058,0.20106192982974677,9.0711512499999998,-0.13075533333333333,-3.162644625
1403636581743555584,0.039793506945470715,-0.038397243543875248,0.17592918860102841,9.3490063333333335,-0.04903325,-3.3179165833333331
1403636581748555520,0.024434609527920613,-0.037699111843077518,0.13823007675795088,9.3735229583333322,0.032688833333333334,-3.4486719166666666
1403636581753555456,0.0153588974175501,-0.033510321638291124,0.095644043009289262,9.4307284166666658,-0.13075533333333333,-3.4568441249999995
1403636581758555392,0.016755160819145562,-0.035604716740684328,0.058643062867009467,9.3980395833333326,-0.32688833333333334,-3.5794272499999997
1403636581763555584,0.025132741228718346,-0.035604716740684328,0.039793506945470715,9.3408341249999989,-0.46581587499999999,-3.6366327083333334
1403636581768555520,0.05166174585903216,-0.024434609527920613,0.032812189937493394,9.1528733333333321,-0.57205458333333326,-3.6856659583333333
1403636581773555456,0.074001960284559576,-0.018849555921538759,0.02583087292951608,9.0139457916666661,-0.64560445833333324,-3.8082490833333327
1403636581778555392,0.097738438111682452,-0.019547687622336492,0.027925268031909273,8.8586738333333326,-0.55571016666666662,-3.8654545416666664
1403636581783555584,0.11868238913561441,-0.025132741228718346,0.039095375244672985,8.6298519999999996,-0.4494714583333333,-3.8000768749999998
1403636581788555520,0.1340412865531645,-0.032114058236695664,0.055152404363020817,8.5154410833333323,-0.40043820833333332,-3.7510436249999999
1403636581793555456,0.14730578886832138,-0.045378560551852569,0.080983277292536876,8.5644743333333331,-0.28602729166666663,-3.6529771249999996
1403636581798555392,0.15428710587629874,-0.060039326268604934,0.11588986233242347,8.6625408333333329,-0.18796079166666665,-3.4650163333333333
1403636581803555584,0.15777776438028737,-0.065624379874986788,0.143116998663535,8.8505016249999997,-0.18796079166666665,-3.2607111249999998
1403636581808555520,0.15777776438028737,-0.068416906678177722,0.16406094968746698,9.2019065833333329,-0.065377666666666667,-3.1463002083333333
1403636581813555456,0.15358897417550099,-0.063529984772593598,0.17174039839624203,9.3898673749999997,0.040861041666666667,-3.0482337083333335
1403636581818555392,0.13892820845874865,-0.050963614158234416,0.15917402778188286,9.422556208333333,0.16344416666666667,-2.9011339583333333
1403636581823555584,0.11100294042683936,-0.050265482457436693,0.14032447186034408,9.4552450416666662,0.17978858333333333,-2.8357562916666668
1403636581828555520,0.084473935796525554,-0.056548667764616284,0.11938052083641214,9.3898673749999997,0.24516625,-2.7867230416666664
1403636581833555456,0.058643062867009467,-0.060737457969402671,0.098436569812480182,9.2345954166666662,0.21247741666666667,-2.8766173333333334
1403636581838555392,0.029321531433504733,-0.060039326268604934,0.085870199198121014,9.2509398333333337,0.16344416666666667,-3.0972669583333334
1403636581843555584,0.00069813170079773186,-0.067020643276582248,0.07958701389094143,9.2019065833333329,0.13075533333333333,-3.2607111249999998
1403636581848555520,-0.019547687622336492,-0.074700091985357306,0.07819075048934597,9.1692177499999996,-0.098066500000000001,-3.3832942499999996
1403636581853555456,-0.028623399732707,-0.08377580409572781,0.08237954069413235,9.1283567083333317,-0.392266,-3.4159830833333329
1403636581858555392,-0.023038346126325153,-0.10402162341886204,0.08237954069413235,9.1692177499999996,-0.75184316666666662,-3.4813607499999994
1403636581863555584,-0.0027925268031909274,-0.11938052083641214,0.094945911308491532,9.2100787916666658,-0.95614837499999994,-3.5385662083333331
1403636581868555520,0.023736477827122883,-0.1291543646475804,0.12077678423800758,9.3163174999999985,-0.96432058333333326,-3.6448049166666663
1403636581873555456,0.045378560551852569,-0.14381513036433274,0.14172073526193954,9.5124504999999999,-0.88259849999999995,-3.67749375
1403636581878555392,0.073303828583761846,-0.15149457907310779,0.16615534478986016,9.5778281666666665,-0.6701210833333332,-3.5712550416666669
1403636581883555584,0.085870199198121014,-0.15707963267948966,0.18500490071139891,9.6268614166666655,-0.52302133333333334,-3.5058773749999999
1403636581888555520,0.093549647906896058,-0.17034413499464657,0.19198621771937624,9.7167557083333325,-0.47398808333333331,-3.4404997083333333
1403636581893555456,0.096342174710086978,-0.18500490071139891,0.19198621771937624,9.7657889583333333,-0.29419949999999995,-3.3751220416666667
1403636581898555392,0.092851516206098328,-0.18919369091618532,0.18989182261698306,9.733100125,-0.14709974999999997,-3.366949833333333
1403636581903555584,0.078888882190143686,-0.19617500792416265,0.18919369091618532,9.7821333750000008,-0.0081722083333333334,-3.3914664583333329
1403636581908555520,0.055850536063818547,-0.20525072003453312,0.18221237390820799,9.7167557083333325,0.25333845833333329,-3.4078108749999996
1403636581913555456,0.027925268031909273,-0.21432643214490363,0.17662732030182612,9.7167557083333325,0.34323275000000003,-3.4813607499999994
1403636581918555392,-0.0097738438111682462,-0.21572269554649914,0.16336281798666924,9.6758946666666663,0.38409379166666668,-3.5303939999999998
1403636581923555584,-0.048869219055841226,-0.21711895894809458,0.14241886696273731,9.7657889583333333,0.3105439166666667,-3.6938381666666662
1403636581928555520,-0.08307767239493008,-0.22479840765686968,0.12356931104119852,9.7167557083333325,0.17161637500000002,-3.7346992083333332
1403636581933555456,-0.11868238913561441,-0.23108159296404923,0.1096066770252439,9.6758946666666663,0.024516625,-3.6448049166666663
1403636581938555392,-0.1291543646475804,-0.24294983187761068,0.10122909661567112,9.7249279166666671,-0.18796079166666665,-3.5467384166666669
1403636581943555584,-0.13334315485236678,-0.25481807079117208,0.099832833214075656,9.7984777916666665,-0.26968287499999999,-3.4650163333333333
1403636581948555520,-0.1291543646475804,-0.27017696820872222,0.10681415022205297,9.8801998750000006,-0.43312704166666666,-3.3506054166666663
1403636581953555456,-0.11868238913561441,-0.27715828521669955,0.12426744274199628,10.092677291666664,-0.58839899999999989,-3.2688833333333331
1403636581958555392,-0.096342174710086978,-0.2813470754214859,0.14451326206513049,10.190743791666666,-0.57205458333333326,-3.2198500833333328
1403636581963555584,-0.074700091985357306,-0.27995081201989047,0.16755160819145562,10.182571583333333,-0.5475379583333333,-3.1789890416666662
1403636581968555520,-0.055152404363020817,-0.27995081201989047,0.18221237390820799,10.313326916666666,-0.392266,-3.2688833333333331
1403636581973555456,-0.043284165449459372,-0.27925268031909273,0.19338248112097173,10.223432624999999,-0.15527195833333335,-3.3342610000000001
1403636581978555392,-0.041887902047863905,-0.27995081201989047,0.1954768762233649,10.092677291666664,0.0081722083333333334,-3.4404997083333333
1403636581983555584,-0.048869219055841226,-0.28832839242946323,0.18500490071139891,10.051816249999998,0.10623870833333333,-3.5794272499999997
1403636581988555520,-0.067020643276582248,-0.30159289474462014,0.1626646862858715,10.010955208333332,0.13075533333333333,-3.7673880416666665
1403636581993555456,-0.08377580409572781,-0.30997047515419296,0.13683381335635544,9.9782663750000005,0.122583125,-3.8899711666666663
1403636581998555392,-0.10332349171806432,-0.31276300195738388,0.11239920382843484,9.9619219583333329,0.040861041666666667,-3.9880376666666666
1403636582003555584,-0.11938052083641214,-0.31974431896536115,0.080983277292536876,10.019127416666667,-0.04903325,-4.1759984583333329
1403636582008555520,-0.13124875974997358,-0.32183871406775438,0.057246799465414,10.019127416666667,-0.13892754166666665,-4.2332039166666666
1403636582013555456,-0.13543754995475996,-0.31904618726456346,0.034906585039886591,10.059988458333333,-0.3105439166666667,-4.3149259999999998
1403636582018555392,-0.1361356816555577,-0.32323497746934982,0.020943951023931952,10.141710541666667,-0.45764366666666667,-4.3721314583333335
1403636582023555584,-0.12566370614359174,-0.32183871406775438,0.017453292519943295,10.190743791666666,-0.47398808333333331,-4.3476148333333331
1403636582028555520,-0.11030480872604163,-0.32183871406775438,0.022340214425527419,10.264293666666665,-0.43312704166666666,-4.2822371666666665
1403636582033555456,-0.097738438111682452,-0.32672563597333848,0.043982297150257102,10.378704583333333,-0.4494714583333333,-4.1759984583333329
1403636582038555392,-0.07958701389094143,-0.33231068957972032,0.064926248174189058,10.607526416666667,-0.40861041666666664,-4.1433096249999997
1403636582043555584,-0.061435589670200401,-0.33091442617812489,0.08237954069413235,10.721937333333331,-0.40861041666666664,-4.0942763749999997
1403636582048555520,-0.038397243543875248,-0.3295181627765294,0.099134701513277898,10.967103583333333,-0.41678262500000002,-4.1187929999999993
1403636582053555456,-0.019547687622336492,-0.32183871406775438,0.10611601852125524,11.13054775,-0.35957716666666667,-4.1514818333333334
1403636582058555392,-0.0062831853071795866,-0.31904618726456346,0.1075122819228507,11.138719958333333,-0.24516625,-4.126965208333333
1403636582063555584,0.0062831853071795866,-0.31276300195738388,0.10402162341886204,11.081514499999999,-0.13075533333333333,-4.2168595
1403636582068555520,0.0076794487087750501,-0.31974431896536115,0.087964594300514204,11.065170083333333,-0.065377666666666667,-4.3312704166666665
1403636582073555456,0.011868238913561441,-0.31974431896536115,0.07609635538695278,10.934414749999998,0.040861041666666667,-4.396648083333333
1403636582078555392,0.0055850536063818549,-0.3204424506661589,0.064926248174189058,10.885381500000001,-0.073549874999999987,-4.5355756249999999
1403636582083555584,0.00069813170079773186,-0.3246312408709453,0.05305800926062762,10.885381500000001,-0.196133,-4.6499865416666664
1403636582088555520,0.0013962634015954637,-0.3295181627765294,0.037000980142279788,10.811831625,-0.18796079166666665,-4.75622525
1403636582093555456,0.0020943951023931952,-0.32672563597333848,0.028623399732707,10.803659416666665,-0.27785508333333331,-4.7807418749999995
1403636582098555392,0.0069813170079773184,-0.32742376767413622,0.016755160819145562,10.926242541666667,-0.40043820833333332,-4.8869805833333331
1403636582103555584,0.013962634015954637,-0.3204424506661589,0.01117010721276371,11.024309041666667,-0.44129924999999998,-4.9523582499999996
1403636582108555520,0.022340214425527419,-0.31415926535897931,0.0090757121103705145,11.122375541666667,-0.49850470833333332,-4.9278416249999992
1403636582113555456,0.029321531433504733,-0.30298915814621558,0.0153588974175501,11.277647499999999,-0.59657120833333332,-5.0095637083333333
1403636582118555392,0.038397243543875248,-0.30159289474462014,0.02722713633111154,11.383886208333333,-0.53119354166666666,-4.9932192916666667
1403636582123555584,0.046774823953448029,-0.29740410453983374,0.047472955654245766,11.416575041666665,-0.5475379583333333,-4.9523582499999996
1403636582128555520,0.060737457969402671,-0.28483773392547462,0.073303828583761846,11.539158166666667,-0.50667691666666659,-4.9114972083333335
1403636582133555456,0.069813170079773182,-0.28064894372068816,0.10471975511965977,11.669913499999998,-0.38409379166666668,-4.8542917499999998
1403636582138555392,0.072605696882964116,-0.27436575841350858,0.13194689145077129,11.776152208333334,-0.31871612500000002,-4.8379473333333332
1403636582143555584,0.08168140899333462,-0.25900686099595849,0.14102260356114182,11.808841041666666,-0.26968287499999999,-4.8706361666666664
1403636582148555520,0.087964594300514204,-0.2436479635784084,0.14590952546672595,11.792496624999998,-0.14709974999999997,-4.9523582499999996
1403636582153555456,0.085172067497323284,-0.23457225146803787,0.14102260356114182,11.759807791666667,-0.016344416666666667,-4.9278416249999992
1403636582158555392,0.085172067497323284,-0.22689280275926282,0.12356931104119852,11.669913499999998,0.057205458333333334,-4.9441860416666659
1403636582163555584,0.075398223686155036,-0.22968532956245377,0.10192722831646883,11.645396874999999,0.04903325,-4.9523582499999996
1403636582168555520,0.071907565182166372,-0.23317598806644241,0.08168140899333462,11.604535833333333,0.057205458333333334,-4.9523582499999996
1403636582173555456,0.065624379874986788,-0.23527038316883564,0.062831853071795868,11.702602333333333,0.0081722083333333334,-4.9523582499999996
1403636582178555392,0.062133721370998138,-0.23736477827122882,0.042586033748661642,11.874218708333334,-0.040861041666666667,-5.0422525416666666
1403636582183555584,0.063529984772593598,-0.23038346126325149,0.038397243543875248,12.021318458333333,-0.057205458333333334,-5.066769166666667
1403636582188555520,0.060737457969402671,-0.21921335405048781,0.031415926535897934,12.119384958333333,-0.122583125,-5.066769166666667
1403636582193555456,0.064228116473391328,-0.20664698343612864,0.038397243543875248,12.152073791666666,-0.15527195833333335,-4.9932192916666667
1403636582198555392,0.069813170079773182,-0.19198621771937624,0.046774823953448029,12.176590416666667,-0.11441091666666667,-5.0095637083333333
1403636582203555584,0.066322511575784518,-0.18570303241219666,0.056548667764616284,12.143901583333331,0.016344416666666667,-5.0422525416666666
1403636582208555520,0.064228116473391328,-0.17243853009703977,0.064926248174189058,12.103040541666665,-0.016344416666666667,-4.9687026666666672
1403636582213555456,0.055850536063818547,-0.16615534478986016,0.067020643276582248,12.176590416666667,-0.0081722083333333334,-5.0177359166666671
1403636582218555392,0.049567350756638949,-0.16057029118347829,0.072605696882964116,12.168418208333332,0.032688833333333334,-5.0340803333333328
1403636582223555584,0.047472955654245766,-0.14730578886832138,0.07819075048934597,12.184762624999999,-0.073549874999999987,-5.0013914999999995
1403636582228555520,0.041189770347066175,-0.14032447186034408,0.07819075048934597,12.258312499999999,-0.040861041666666667,-5.0177359166666671
1403636582233555456,0.037000980142279788,-0.12985249634837812,0.073303828583761846,12.307345749999998,0.073549874999999987,-5.0422525416666666
1403636582238555392,0.032812189937493394,-0.1228711793404008,0.068416906678177722,12.315517958333333,-0.0081722083333333334,-5.0504247499999995
1403636582243555584,0.02722713633111154,-0.11239920382843484,0.062831853071795868,12.4544455,-0.040861041666666667,-5.1484912500000002
1403636582248555520,0.020245819323134219,-0.10681415022205297,0.057246799465414,12.4544455,-0.065377666666666667,-5.1893522916666663
1403636582253555456,0.024434609527920613,-0.094945911308491532,0.062133721370998138,12.405412249999998,-0.16344416666666667,-5.1811800833333326
1403636582258555392,0.027925268031909273,-0.084473935796525554,0.063529984772593598,12.462617708333331,-0.20430520833333332,-5.2220411249999996
1403636582263555584,0.037699111843077518,-0.076794487087750496,0.064228116473391328,12.560684208333331,-0.29419949999999995,-5.3773130833333331
1403636582268555520,0.048171087355043489,-0.068416906678177722,0.070511301780570912,12.495306541666666,-0.32688833333333334,-5.4345185416666668
1403636582273555456,0.060039326268604934,-0.050265482457436693,0.074001960284559576,12.527995375,-0.38409379166666668,-5.5080684166666662
1403636582278555392,0.062133721370998138,-0.040491638646268438,0.074700091985357306,12.462617708333331,-0.35140495833333335,-5.5734460833333328
1403636582283555584,0.061435589670200401,-0.034906585039886591,0.069813170079773182,12.315517958333333,-0.29419949999999995,-5.5407572499999995
1403636582288555520,0.062133721370998138,-0.024434609527920613,0.069115038378975438,12.266484708333332,-0.26968287499999999,-5.5979627083333323
1403636582293555456,0.059341194567807204,-0.0153588974175501,0.073303828583761846,12.20927925,-0.28602729166666663,-5.5979627083333323
1403636582298555392,0.055152404363020817,-0.0062831853071795866,0.07958701389094143,12.192934833333334,-0.23699404166666665,-5.6633403749999998
1403636582303555584,0.052359877559829883,0.0034906585039886592,0.087266462599716474,12.119384958333333,-0.26968287499999999,-5.6061349166666661
1403636582308555520,0.05375614096142535,0.030019663134302467,0.096342174710086978,12.062179499999999,-0.29419949999999995,-5.5571016666666662
1403636582313555456,0.046774823953448029,0.045378560551852569,0.11100294042683936,11.996801833333333,-0.22064962499999999,-5.5489294583333324
1403636582318555392,0.046774823953448029,0.065624379874986788,0.11798425743481668,11.866046499999999,-0.22064962499999999,-5.4590351666666663
1403636582323555584,0.041887902047863905,0.080285145591739146,0.12217304763960307,11.808841041666666,-0.26151066666666667,-5.4345185416666668
1403636582328555520,0.037000980142279788,0.093549647906896058,0.11938052083641214,11.751635583333332,-0.23699404166666665,-5.426346333333333
1403636582333555456,0.040491638646268438,0.10192722831646883,0.114493598930828,11.661741291666667,-0.31871612500000002,-5.3773130833333331
1403636582338555392,0.037699111843077518,0.12496557444279401,0.10471975511965977,11.653569083333332,-0.38409379166666668,-5.4590351666666663
1403636582343555584,0.037699111843077518,0.1340412865531645,0.10262536001726656,11.563674791666667,-0.3350605416666666,-5.4100019166666664
1403636582348555520,0.039793506945470715,0.15289084247470325,0.099832833214075656,11.416575041666665,-0.30237170833333332,-5.3201076249999995
1403636582353555456,0.039095375244672985,0.17243853009703977,0.10122909661567112,11.359369583333333,-0.29419949999999995,-5.2792465833333333
1403636582358555392,0.039095375244672985,0.18500490071139891,0.099832833214075656,11.204097624999999,-0.3105439166666667,-5.2220411249999996
1403636582363555584,0.043982297150257102,0.2059488517353309,0.099832833214075656,11.114203333333332,-0.26968287499999999,-5.1484912500000002
1403636582368555520,0.039793506945470715,0.22759093446006054,0.094247779607693802,10.942586958333331,-0.23699404166666665,-5.0831135833333327
1403636582373555456,0.039095375244672985,0.24504422698000386,0.089360857702109678,10.844520458333331,-0.15527195833333335,-5.0831135833333327
1403636582378555392,0.036302848441482058,0.25551620249196988,0.092851516206098328,10.6892485,-0.016344416666666667,-5.0177359166666671
1403636582383555584,0.028623399732707,0.27296949501191314,0.087964594300514204,10.550320958333334,0.024516625,-4.9441860416666659
1403636582388555520,0.018151424220741029,0.28553586562627226,0.086568330898918744,10.525804333333332,0.098066500000000001,-4.9033249999999997
1403636582393555456,0.008377580409572781,0.29391344603584507,0.080983277292536876,10.4931155,0.17161637500000002,-4.8379473333333332
1403636582398555392,-0.0013962634015954637,0.30438542154781112,0.068416906678177722,10.411393416666668,0.122583125,-4.797086291666667
1403636582403555584,-0.0097738438111682462,0.31346113365818162,0.060039326268604934,10.419565624999999,0.073549874999999987,-4.7480530416666662
1403636582408555520,-0.016057029118347832,0.31904618726456346,0.05375614096142535,10.386876791666666,0.057205458333333334,-4.6418143333333326
1403636582413555456,-0.019547687622336492,0.32742376767413622,0.055850536063818547,10.321499124999999,0.032688833333333334,-4.5274034166666661
1403636582418555392,-0.020245819323134219,0.3302162944773272,0.064228116473391328,10.256121458333332,-0.11441091666666667,-4.4211647083333325
1403636582423555584,-0.011868238913561441,0.33510321638291124,0.078888882190143686,10.272465875,-0.17978858333333333,-4.355787041666666
1403636582428555520,-0.0027925268031909274,0.33719761148530447,0.099832833214075656,10.109021708333332,-0.18796079166666665,-4.2086872916666662
1403636582433555456,0.0041887902047863905,0.33580134808370898,0.11938052083641214,10.051816249999998,-0.18796079166666665,-4.1024485833333335
1403636582438555392,0.0090757121103705145,0.33231068957972032,0.1270599695451872,10.059988458333333,-0.14709974999999997,-4.1024485833333335
1403636582443555584,0.0097738438111682462,0.32882003107573171,0.1270599695451872,10.059988458333333,-0.073549874999999987,-4.0615875416666665
1403636582448555520,0.0048869219055841231,0.33510321638291124,0.11309733552923257,10.109021708333332,-0.040861041666666667,-4.0697597499999993
1403636582453555456,0.00069813170079773186,0.33580134808370898,0.10262536001726656,10.158054958333333,0.057205458333333334,-4.1351374166666668
1403636582458555392,-0.01117010721276371,0.33300882128051806,0.085172067497323284,10.100849499999999,0.15527195833333335,-4.1351374166666668
1403636582463555584,-0.016755160819145562,0.32602750427254074,0.063529984772593598,10.002782999999999,0.30237170833333332,-4.1351374166666668
1403636582468555520,-0.025132741228718346,0.31834805556376572,0.041189770347066175,9.9619219583333329,0.21247741666666667,-4.1678262500000001
1403636582473555456,-0.040491638646268438,0.30857421175259747,0.023736477827122883,9.9782663750000005,0.22882183333333334,-4.2086872916666662
1403636582478555392,-0.05305800926062762,0.29949849964222697,0.008377580409572781,9.9292331249999997,0.26151066666666667,-4.1759984583333329
1403636582483555584,-0.059341194567807204,0.28902652413026098,-0.0041887902047863905,9.8965442916666664,0.17161637500000002,-4.1433096249999997
1403636582488555520,-0.064926248174189058,0.2813470754214859,-0.018849555921538759,9.872027666666666,0.22064962499999999,-4.1106207916666664
1403636582493555456,-0.069115038378975438,0.27296949501191314,-0.020245819323134219,9.831166624999998,0.11441091666666667,-4.0861041666666669
1403636582498555392,-0.074700091985357306,0.26598817800393582,-0.023736477827122883,9.822994416666667,-0.057205458333333334,-4.1187929999999993
1403636582503555584,-0.07819075048934597,0.26110125609835172,-0.020245819323134219,9.822994416666667,-0.040861041666666667,-4.1106207916666664
1403636582508555520,-0.080285145591739146,0.2583087292951608,-0.0076794487087750501,9.7167557083333325,-0.098066500000000001,-4.0452431249999998
1403636582513555456,-0.084473935796525554,0.25691246589356531,0.012566370614359173,9.5696559583333336,-0.16344416666666667,-3.9880376666666666
1403636582518555392,-0.080983277292536876,0.2457423586808016,0.034208453339088861,9.5451393333333332,-0.30237170833333332,-3.947176625
1403636582523555584,-0.071907565182166372,0.24085543677521751,0.061435589670200401,9.4961060833333324,-0.28602729166666663,-3.9308322083333329
1403636582528555520,-0.068416906678177722,0.23596851486963336,0.078888882190143686,9.3408341249999989,-0.21247741666666667,-3.9308322083333329
1403636582533555456,-0.063529984772593598,0.23108159296404923,0.090058989402907408,9.2754564583333323,-0.11441091666666667,-3.906315583333333
1403636582538555392,-0.062133721370998138,0.22759093446006054,0.092851516206098328,9.2100787916666658,0.065377666666666667,-3.9308322083333329
1403636582543555584,-0.071907565182166372,0.22270401255447644,0.087266462599716474,9.1201845000000006,0.13892754166666665,-3.9144877916666663
1403636582548555520,-0.080285145591739146,0.21781709064889232,0.074700091985357306,9.0384624166666665,0.13892754166666665,-3.881798958333333
1403636582553555456,-0.084473935796525554,0.20804324683772407,0.067020643276582248,9.0057735833333332,0.20430520833333332,-3.8164212916666664
1403636582558555392,-0.087964594300514204,0.1982694030265558,0.057246799465414,8.9730847499999999,0.25333845833333329,-3.8000768749999998
1403636582563555584,-0.086568330898918744,0.18709929581379212,0.047472955654245766,9.0711512499999998,0.24516625,-3.8082490833333327
1403636582568555520,-0.094945911308491532,0.17453292519943295,0.032114058236695664,9.2182509999999986,0.3350605416666666,-3.8245934999999998
1403636582573555456,-0.10611601852125524,0.16406094968746698,0.0041887902047863905,9.3490063333333335,0.392266,-3.8082490833333327
1403636582578555392,-0.11798425743481668,0.1556833692778942,-0.023038346126325153,9.471589458333332,0.40861041666666664,-3.7919046666666665
1403636582583555584,-0.12775810124598494,0.14660765716752369,-0.037699111843077518,9.5533115416666661,0.41678262500000002,-3.7837324583333327
1403636582588555520,-0.13962634015954636,0.14381513036433274,-0.046774823953448029,9.4879338749999995,0.30237170833333332,-3.7428714166666661
1403636582593555456,-0.13753194505715316,0.13543754995475996,-0.043982297150257102,9.4634172499999991,0.089894291666666667,-3.7183547916666662
1403636582598555392,-0.13683381335635544,0.13264502315156904,-0.027925268031909273,9.471589458333332,-0.081722083333333334,-3.7755602499999998
1403636582603555584,-0.13264502315156904,0.1270599695451872,-0.0020943951023931952,9.3816951666666668,-0.15527195833333335,-3.7919046666666665
1403636582608555520,-0.11938052083641214,0.13055062804917586,0.034208453339088861,9.2672842499999994,-0.17978858333333333,-3.7919046666666665
1403636582613555456,-0.11728612573401893,0.12217304763960307,0.056548667764616284,9.1855621666666654,-0.14709974999999997,-3.7919046666666665
1403636582618555392,-0.11309733552923257,0.12147491593880534,0.08377580409572781,9.0548068333333322,0.016344416666666667,-3.8082490833333327
1403636582623555584,-0.11379546723003027,0.12007865253720987,0.10053096491487339,8.9976013749999986,0.040861041666666667,-3.8409379166666664
1403636582628555520,-0.12147491593880534,0.11868238913561441,0.095644043009289262,8.8668460416666655,0.073549874999999987,-3.8409379166666664
1403636582633555456,-0.12845623294678266,0.11728612573401893,0.08237954069413235,8.8096405833333318,0.122583125,-3.8082490833333327
1403636582638555392,-0.12985249634837812,0.11519173063162574,0.075398223686155036,8.6053353749999992,0.122583125,-3.7510436249999999
1403636582643555584,-0.12496557444279401,0.11588986233242347,0.062831853071795868,8.6135075833333321,0.073549874999999987,-3.7755602499999998
1403636582648555520,-0.11868238913561441,0.11728612573401893,0.058643062867009467,8.6135075833333321,0.04903325,-3.7592158333333332
1403636582653555456,-0.1054178868204575,0.1165879940332212,0.062831853071795868,8.5889909583333335,0.081722083333333334,-3.6938381666666662
1403636582658555392,-0.087964594300514204,0.1228711793404008,0.069813170079773182,8.5644743333333331,0.0,-3.6284604999999996
1403636582663555584,-0.070511301780570912,0.12007865253720987,0.080983277292536876,8.5971631666666664,0.065377666666666667,-3.5385662083333331
1403636582668555520,-0.057944931166211737,0.11798425743481668,0.089360857702109678,8.6543686249999983,0.13892754166666665,-3.4731885416666666
1403636582673555456,-0.049567350756638949,0.11868238913561441,0.097040306410884708,8.7279184999999995,0.14709974999999997,-3.4078108749999996
1403636582678555392,-0.045378560551852569,0.11100294042683936,0.095644043009289262,8.8668460416666655,0.21247741666666667,-3.342433208333333
1403636582683555584,-0.041189770347066175,0.11170107212763709,0.098436569812480182,9.1038400833333331,0.28602729166666663,-3.2443667083333327
1403636582688555520,-0.043284165449459372,0.11309733552923257,0.10192722831646883,9.2182509999999986,0.28602729166666663,-3.1789890416666662
1403636582693555456,-0.045378560551852569,0.11519173063162574,0.10262536001726656,9.4307284166666658,0.24516625,-3.1217835833333334
1403636582698555392,-0.050963614158234416,0.11728612573401893,0.11030480872604163,9.5696559583333336,0.25333845833333329,-3.0809225416666663
1403636582703555584,-0.05166174585903216,0.12077678423800758,0.12077678423800758,9.6350336250000002,0.27785508333333331,-3.0318892916666664
1403636582708555520,-0.057944931166211737,0.1228711793404008,0.13124875974997358,9.6677224583333334,0.27785508333333331,-3.0645781249999997
1403636582713555456,-0.066322511575784518,0.12985249634837812,0.14730578886832138,9.7249279166666671,0.3105439166666667,-3.1136113750000001
1403636582718555392,-0.074001960284559576,0.13823007675795088,0.15358897417550099,9.6105169999999998,0.27785508333333331,-3.1708168333333329
1403636582723555584,-0.08168140899333462,0.14870205226991687,0.15219271077390556,9.5451393333333332,0.27785508333333331,-3.3015721666666664
1403636582728555520,-0.080983277292536876,0.15358897417550099,0.15777776438028737,9.3490063333333335,0.26151066666666667,-3.4159830833333329
1403636582733555456,-0.087964594300514204,0.1626646862858715,0.1626646862858715,9.0629790416666669,0.196133,-3.4813607499999994
1403636582738555392,-0.090058989402907408,0.16824973989225336,0.16196655458507375,8.8178127916666664,0.122583125,-3.5140495833333332
1403636582743555584,-0.093549647906896058,0.16824973989225336,0.15847589608108512,8.6380242083333325,0.089894291666666667,-3.5303939999999998
1403636582748555520,-0.094945911308491532,0.16824973989225336,0.15219271077390556,8.4418912083333328,0.13075533333333333,-3.4650163333333333
1403636582753555456,-0.093549647906896058,0.16824973989225336,0.15498523757709648,8.3601691250000005,0.098066500000000001,-3.4241552916666667
1403636582758555392,-0.092851516206098328,0.17243853009703977,0.1647590813882647,8.3683413333333334,0.196133,-3.366949833333333
1403636582763555584,-0.096342174710086978,0.17174039839624203,0.17802358370342161,8.4173745833333324,0.26968287499999999,-3.3015721666666664
1403636582768555520,-0.10262536001726656,0.17732545200262387,0.18430676901060122,8.5481299166666673,0.196133,-3.2280222916666665
1403636582773555456,-0.11030480872604163,0.19338248112097173,0.18919369091618532,8.8014683749999989,0.14709974999999997,-3.1871612499999999
1403636582778555392,-0.11519173063162574,0.20455258833373544,0.19128808601857852,8.9894291666666657,0.073549874999999987,-3.2116778749999999
1403636582783555584,-0.11519173063162574,0.2199114857512855,0.19338248112097173,9.1528733333333321,0.073549874999999987,-3.2280222916666665
1403636582788555520,-0.11938052083641214,0.23038346126325149,0.1884955592153876,9.3244897083333331,0.22882183333333334,-3.2280222916666665
1403636582793555456,-0.12636183784438945,0.23736477827122882,0.18709929581379212,9.4797616666666666,0.35140495833333335,-3.3097443750000002
1403636582798555392,-0.14381513036433274,0.23527038316883564,0.18151424220741028,9.471589458333332,0.41678262500000002,-3.3015721666666664
1403636582803555584,-0.16406094968746698,0.23247785636564469,0.17802358370342161,9.5860003749999994,0.36774937499999999,-3.3097443750000002
1403636582808555520,-0.18221237390820799,0.23596851486963336,0.17592918860102841,9.733100125,0.29419949999999995,-3.4159830833333329
1403636582813555456,-0.18919369091618532,0.24225170017681294,0.17313666179783749,9.7412723333333329,0.23699404166666665,-3.4486719166666666
1403636582818555392,-0.19687313962496036,0.25411993909037439,0.16615534478986016,9.6758946666666663,0.032688833333333334,-3.4323274999999995
1403636582823555584,-0.19896753472735357,0.26389378290154258,0.16406094968746698,9.5778281666666665,0.016344416666666667,-3.4813607499999994
1403636582828555520,-0.19896753472735357,0.27436575841350858,0.16545721308906244,9.2672842499999994,-0.0081722083333333334,-3.4813607499999994
1403636582833555456,-0.20245819323134223,0.29042278753185646,0.16964600329384885,8.9240514999999991,-0.081722083333333334,-3.4486719166666666
1403636582838555392,-0.19757127132575814,0.29740410453983374,0.18081611050661253,8.6461964166666672,-0.18796079166666665,-3.5467384166666669
1403636582843555584,-0.18500490071139891,0.30229102644541789,0.19198621771937624,8.3356525000000001,-0.29419949999999995,-3.6121160833333334
1403636582848555520,-0.17313666179783749,0.30787608005179973,0.1982694030265558,8.033280791666666,-0.3350605416666666,-3.6039438749999997
1403636582853555456,-0.15917402778188286,0.31695179216217023,0.20036379812894903,7.8780088333333333,-0.32688833333333334,-3.5549106249999998
1403636582858555392,-0.15498523757709648,0.31764992386296798,0.19477874452256716,7.8126311666666659,-0.22064962499999999,-3.5222217916666665
1403636582863555584,-0.15289084247470325,0.32253684576855213,0.1864011641129944,7.7554257083333331,-0.17978858333333333,-3.4404997083333333
1403636582868555520,-0.14940018397071461,0.3295181627765294,0.18151424220741028,7.763597916666666,-0.28602729166666663,-3.366949833333333
1403636582873555456,-0.14870205226991687,0.33370695298131581,0.18081611050661253,7.8616644166666658,-0.3350605416666666,-3.2770555416666665
1403636582878555392,-0.14172073526193954,0.33999013828849539,0.1864011641129944,7.9188698749999995,-0.36774937499999999,-3.1953334583333328
1403636582883555584,-0.12985249634837812,0.34976398209966358,0.19338248112097173,7.9270420833333333,-0.392266,-3.0727503333333335
1403636582888555520,-0.11588986233242347,0.34976398209966358,0.20525072003453312,8.0577974166666664,-0.25333845833333329,-3.0318892916666664
1403636582893555456,-0.10890854532444616,0.35744343080843871,0.21362830044410594,8.0823140416666668,-0.057205458333333334,-2.9992004583333332
1403636582898555392,-0.11170107212763709,0.36651914291880922,0.20943951023931953,8.2212415833333328,0.0,-2.9746838333333332
1403636582903555584,-0.11588986233242347,0.3672172746196069,0.19408061282176942,8.3356525000000001,0.0081722083333333334,-2.9910282499999998
1403636582908555520,-0.11868238913561441,0.36861353802120245,0.16196655458507375,8.3193080833333326,0.040861041666666667,-2.9501672083333332
1403636582913555456,-0.114493598930828,0.3672172746196069,0.12985249634837812,8.1640361249999991,0.024516625,-2.8847895416666667
1403636582918555392,-0.1096066770252439,0.36372661611561824,0.10471975511965977,8.0904862499999997,-0.065377666666666667,-2.8357562916666668
1403636582923555584,-0.10053096491487339,0.35883969421003409,0.086568330898918744,7.9924197499999989,-0.15527195833333335,-2.9338227916666666
1403636582928555520,-0.088662726001311934,0.35814156250923646,0.078888882190143686,7.8698366249999996,-0.3105439166666667,-2.9419949999999999
1403636582933555456,-0.074001960284559576,0.36861353802120245,0.080983277292536876,7.7309090833333327,-0.44129924999999998,-2.9665116249999999
1403636582938555392,-0.061435589670200401,0.36651914291880922,0.094247779607693802,7.4693984166666665,-0.42495483333333334,-2.9174783749999995
1403636582943555584,-0.049567350756638949,0.36442474781641598,0.10122909661567112,7.2405765833333326,-0.42495483333333334,-2.8439284999999996
1403636582948555520,-0.043284165449459372,0.37070793312359557,0.10262536001726656,7.0607879999999996,-0.36774937499999999,-2.8194118749999997
1403636582953555456,-0.043982297150257102,0.36651914291880922,0.10402162341886204,6.913688249999999,-0.35140495833333335,-2.7295175833333332
1403636582958555392,-0.052359877559829883,0.36582101121801147,0.10681415022205297,6.8237939583333329,-0.32688833333333334,-2.6804843333333328
1403636582963555584,-0.062831853071795868,0.37070793312359557,0.11379546723003027,6.6685220000000003,-0.392266,-2.557901208333333
1403636582968555520,-0.070511301780570912,0.3728023282259888,0.12077678423800758,6.6766942083333323,-0.42495483333333334,-2.5170401666666664
1403636582973555456,-0.071907565182166372,0.3728023282259888,0.13055062804917586,6.6276609583333324,-0.34323275000000003,-2.4680069166666665
1403636582978555392,-0.076794487087750496,0.37629298672997741,0.13473941825396224,6.6031443333333328,-0.24516625,-2.3944570416666666
1403636582983555584,-0.07749261878854824,0.37489672332838198,0.12775810124598494,6.684866416666666,-0.15527195833333335,-2.4353180833333332
1403636582988555520,-0.084473935796525554,0.37140606482439331,0.11379546723003027,6.684866416666666,-0.081722083333333334,-2.3372515833333334
1403636582993555456,-0.08307767239493008,0.35883969421003409,0.098436569812480182,6.6031443333333328,-0.13892754166666665,-2.1738074166666665
1403636582998555392,-0.076794487087750496,0.34278266509168631,0.07958701389094143,6.6603497916666665,-0.17978858333333333,-2.2391850833333331
1403636583003555584,-0.067718774977379978,0.32672563597333848,0.062831853071795868,6.684866416666666,-0.13892754166666665,-2.2391850833333331
1403636583008555520,-0.060039326268604934,0.31974431896536115,0.052359877559829883,6.684866416666666,-0.15527195833333335,-2.2146684583333331
1403636583013555456,-0.050963614158234416,0.31415926535897931,0.038397243543875248,6.5949721249999991,-0.15527195833333335,-2.1983240416666665
1403636583018555392,-0.039095375244672985,0.2960078411382383,0.023736477827122883,6.5132500416666668,-0.16344416666666667,-2.1247741666666666
1403636583023555584,-0.023038346126325153,0.2778564169174973,0.0153588974175501,6.3171170416666662,-0.15527195833333335,-1.9776744166666664
1403636583028555520,-0.012566370614359173,0.2583087292951608,0.010471975511965976,6.2272227500000001,-0.196133,-1.8060580416666667
1403636583033555456,0.0,0.23596851486963336,0.012566370614359173,6.2272227500000001,-0.20430520833333332,-1.7733692083333334
1403636583038555392,0.011868238913561441,0.21851522234969004,0.0153588974175501,6.2762560000000001,-0.23699404166666665,-1.7570247916666666
1403636583043555584,0.021642082724729686,0.21013764194011728,0.030019663134302467,6.3334614583333337,-0.30237170833333332,-1.6998193333333333
1403636583048555520,0.023736477827122883,0.20734511513692636,0.044680428851054839,6.5459388749999992,-0.3350605416666666,-1.7897136249999999
1403636583053555456,0.02583087292951608,0.20734511513692636,0.057944931166211737,6.5622832916666667,-0.29419949999999995,-1.8224024583333331
1403636583058555392,0.02722713633111154,0.1982694030265558,0.068416906678177722,6.4805612083333335,-0.29419949999999995,-1.8060580416666667
1403636583063555584,0.020943951023931952,0.19058995431778078,0.078888882190143686,6.5132500416666668,-0.24516625,-1.7570247916666666
1403636583068555520,0.0153588974175501,0.17523105690023066,0.08168140899333462,6.4560445833333331,-0.14709974999999997,-1.8060580416666667
1403636583073555456,0.0069813170079773184,0.15219271077390556,0.078888882190143686,6.415183541666666,-0.0081722083333333334,-1.8142302499999998
1403636583078555392,-0.0069813170079773184,0.13683381335635544,0.07819075048934597,6.4070113333333332,0.04903325,-1.8224024583333331
1403636583083555584,-0.021642082724729686,0.12077678423800758,0.069813170079773182,6.464216791666666,0.22882183333333334,-1.838746875
1403636583088555520,-0.039793506945470715,0.10821041362364843,0.055850536063818547,6.415183541666666,0.34323275000000003,-1.7733692083333334
1403636583093555456,-0.063529984772593598,0.097040306410884708,0.032114058236695664,6.2926004166666667,0.30237170833333332,-1.6753027083333332
1403636583098555392,-0.080285145591739146,0.089360857702109678,0.010471975511965976,6.2272227500000001,0.18796079166666665,-1.6099250416666664
1403636583103555584,-0.085172067497323284,0.07609635538695278,-0.0069813170079773184,6.1209840416666665,0.04903325,-1.5608917916666667
1403636583108555520,-0.085172067497323284,0.066322511575784518,-0.025132741228718346,6.0065731250000001,-0.024516625,-1.5200307499999999
1403636583113555456,-0.08377580409572781,0.060737457969402671,-0.035604716740684328,5.9575398750000002,-0.11441091666666667,-1.593580625
1403636583118555392,-0.084473935796525554,0.052359877559829883,-0.039793506945470715,5.8267845416666662,-0.13892754166666665,-1.6344416666666666
1403636583123555584,-0.08168140899333462,0.050265482457436693,-0.033510321638291124,5.6633403749999998,-0.16344416666666667,-1.6916471249999998
1403636583128555520,-0.076794487087750496,0.039095375244672985,-0.020245819323134219,5.6469959583333331,-0.26968287499999999,-1.7651969999999999
1403636583133555456,-0.072605696882964116,0.033510321638291124,-0.010471975511965976,5.6224793333333336,-0.25333845833333329,-1.7897136249999999
1403636583138555392,-0.071209433481368656,0.023736477827122883,-0.0041887902047863905,5.5979627083333323,-0.20430520833333332,-1.8060580416666667
1403636583143555584,-0.078888882190143686,0.020943951023931952,0.00069813170079773186,5.696029208333333,-0.22064962499999999,-1.8305746666666667
1403636583148555520,-0.08307767239493008,0.014660765716752367,0.0020943951023931952,5.9166788333333331,-0.13075533333333333,-1.8714357083333331
1403636583153555456,-0.086568330898918744,0.0069813170079773184,0.010471975511965976,6.0065731250000001,-0.065377666666666667,-1.8305746666666667
1403636583158555392,-0.093549647906896058,0.0,0.0055850536063818549,6.1046396249999999,-0.098066500000000001,-1.7815414166666665
1403636583163555584,-0.10053096491487339,-0.0069813170079773184,0.0055850536063818549,6.32528925,-0.089894291666666667,-1.7488525833333333
1403636583168555520,-0.099134701513277898,-0.018849555921538759,0.0027925268031909274,6.5132500416666668,-0.081722083333333334,-1.6344416666666666
1403636583173555456,-0.092851516206098328,-0.019547687622336492,-0.0076794487087750501,6.7012108333333327,-0.20430520833333332,-1.5608917916666667
1403636583178555392,-0.078888882190143686,-0.027925268031909273,-0.012566370614359173,6.7992773333333334,-0.37592158333333331,-1.5363751666666667
1403636583183555584,-0.057944931166211737,-0.027925268031909273,-0.016057029118347832,6.7665884999999992,-0.47398808333333331,-1.5608917916666667
1403636583188555520,-0.029321531433504733,-0.030019663134302467,-0.014660765716752367,6.684866416666666,-0.51484912499999991,-1.5527195833333332
1403636583193555456,-0.0020943951023931952,-0.023038346126325153,-0.0041887902047863905,6.6766942083333323,-0.52302133333333334,-1.6507860833333332
1403636583198555392,0.020943951023931952,-0.025132741228718346,0.0013962634015954637,6.5622832916666667,-0.48216029166666663,-1.6998193333333333
1403636583203555584,0.041887902047863905,-0.034906585039886591,0.0069813170079773184,6.3661502916666661,-0.4903325,-1.7079915416666664
1403636583208555520,0.062831853071795868,-0.035604716740684328,0.012566370614359173,6.3171170416666662,-0.49850470833333332,-1.8142302499999998
1403636583213555456,0.07819075048934597,-0.044680428851054839,0.020943951023931952,6.3171170416666662,-0.40861041666666664,-1.8714357083333331
1403636583218555392,0.087964594300514204,-0.050963614158234416,0.023736477827122883,6.2926004166666667,-0.22882183333333334,-1.9041245416666663
1403636583223555584,0.084473935796525554,-0.050265482457436693,0.037699111843077518,6.3661502916666661,-0.04903325,-1.9776744166666664
1403636583228555520,0.07609635538695278,-0.052359877559829883,0.048869219055841226,6.5704555000000004,0.26151066666666667,-2.0185354583333335
1403636583233555456,0.059341194567807204,-0.05375614096142535,0.05445427266222308,6.8156217499999991,0.40861041666666664,-2.0103632499999997
1403636583238555392,0.0307177948351002,-0.048171087355043489,0.060039326268604934,6.9872381250000002,0.47398808333333331,-1.9940188333333333
1403636583243555584,0.008377580409572781,-0.05375614096142535,0.060737457969402671,7.2487487916666655,0.48216029166666663,-1.9368133750000001
1403636583248555520,-0.0090757121103705145,-0.059341194567807204,0.060039326268604934,7.4693984166666665,0.43312704166666666,-1.8632635
1403636583253555456,-0.023736477827122883,-0.066322511575784518,0.050265482457436693,7.6818758333333328,0.3350605416666666,-1.8060580416666667
1403636583258555392,-0.039793506945470715,-0.060039326268604934,0.041887902047863905,7.9270420833333333,0.17978858333333333,-1.8959523333333332
1403636583263555584,-0.038397243543875248,-0.056548667764616284,0.034906585039886591,8.0251085833333331,0.073549874999999987,-1.9204689583333332
1403636583268555520,-0.035604716740684328,-0.05305800926062762,0.033510321638291124,7.9842475416666669,-0.073549874999999987,-1.9449855833333332
1403636583273555456,-0.025132741228718346,-0.048869219055841226,0.030019663134302467,7.9025254583333329,-0.22064962499999999,-1.9531577916666665
1403636583278555392,-0.0097738438111682462,-0.047472955654245766,0.034208453339088861,7.7472535000000002,-0.26968287499999999,-1.9776744166666664
1403636583283555584,0.0076794487087750501,-0.05375614096142535,0.045378560551852569,7.4285373749999994,-0.26151066666666667,-1.96133
1403636583288555520,0.033510321638291124,-0.057944931166211737,0.071907565182166372,7.314126458333333,-0.26968287499999999,-1.9449855833333332
1403636583293555456,0.069115038378975438,-0.067020643276582248,0.098436569812480182,7.2732654166666668,-0.13075533333333333,-1.96133
1403636583298555392,0.087964594300514204,-0.072605696882964116,0.12496557444279401,7.2324043749999998,0.18796079166666665,-1.96133
1403636583303555584,0.092153384505300612,-0.07958701389094143,0.13892820845874865,7.2405765833333326,0.43312704166666666,-1.9531577916666665
1403636583308555520,0.094247779607693802,-0.07819075048934597,0.13962634015954636,7.3795041249999986,0.59657120833333332,-2.0267076666666664
1403636583313555456,0.08377580409572781,-0.07609635538695278,0.13264502315156904,7.4775706249999994,0.65377666666666667,-2.1002575416666667
1403636583318555392,0.074700091985357306,-0.072605696882964116,0.11868238913561441,7.534776083333333,0.58839899999999989,-2.1819796249999999
1403636583323555584,0.069813170079773182,-0.072605696882964116,0.097738438111682452,7.6328425833333329,0.58022679166666657,-2.3699404166666667
1403636583328555520,0.055152404363020817,-0.071209433481368656,0.07609635538695278,7.6491869999999995,0.59657120833333332,-2.5252123749999997
1403636583333555456,0.041189770347066175,-0.067020643276582248,0.05305800926062762,7.6900480416666666,0.52302133333333334,-2.7131731666666665
1403636583338555392,0.023736477827122883,-0.065624379874986788,0.02652900463031381,7.7881145416666664,0.392266,-2.852100708333333
1403636583343555584,0.0027925268031909274,-0.065624379874986788,0.010471975511965976,7.8453200000000001,0.28602729166666663,-2.8929617499999996
1403636583348555520,-0.0090757121103705145,-0.071209433481368656,0.0020943951023931952,7.8208033749999997,0.098066500000000001,-2.827584083333333
1403636583353555456,-0.01117010721276371,-0.080285145591739146,0.010471975511965976,7.8616644166666658,-0.065377666666666667,-2.6477955
1403636583358555392,-0.00069813170079773186,-0.090058989402907408,0.032114058236695664,8.0577974166666664,-0.196133,-2.4925235416666665
1403636583363555584,0.016755160819145562,-0.093549647906896058,0.064926248174189058,8.2294137916666656,-0.23699404166666665,-2.3699404166666667
1403636583368555520,0.037699111843077518,-0.086568330898918744,0.097738438111682452,8.4745800416666661,-0.25333845833333329,-2.3127349583333334
1403636583373555456,0.061435589670200401,-0.076794487087750496,0.1270599695451872,8.6135075833333321,-0.122583125,-2.2963905416666663
1403636583378555392,0.07958701389094143,-0.062831853071795868,0.15009831567151233,8.6053353749999992,0.040861041666666667,-2.2391850833333331
1403636583383555584,0.097040306410884708,-0.05166174585903216,0.1647590813882647,8.4909244583333336,0.13892754166666665,-2.2555295000000002
1403636583388555520,0.11170107212763709,-0.05375614096142535,0.16545721308906244,8.3519969166666659,0.28602729166666663,-2.3454237916666667
1403636583393555456,0.12147491593880534,-0.062831853071795868,0.15358897417550099,8.0741418333333339,0.46581587499999999,-2.4598347083333332
1403636583398555392,0.1228711793404008,-0.075398223686155036,0.12077678423800758,7.9352142916666661,0.57205458333333326,-2.582417833333333
1403636583403555584,0.10890854532444616,-0.084473935796525554,0.07958701389094143,8.0005919583333327,0.63743225000000003,-2.8357562916666668
1403636583408555520,0.089360857702109678,-0.094945911308491532,0.034906585039886591,8.0251085833333331,0.58839899999999989,-3.138128
1403636583413555456,0.071209433481368656,-0.095644043009289262,0.0,7.9842475416666669,0.40861041666666664,-3.3342610000000001
1403636583418555392,0.056548667764616284,-0.088662726001311934,-0.032114058236695664,7.9760753333333332,0.073549874999999987,-3.4159830833333329
1403636583423555584,0.047472955654245766,-0.095644043009289262,-0.052359877559829883,7.9597309166666657,-0.21247741666666667,-3.4404997083333333
1403636583428555520,0.049567350756638949,-0.10402162341886204,-0.055152404363020817,8.0087641666666656,-0.46581587499999999,-3.3179165833333331
1403636583433555456,0.062831853071795868,-0.11100294042683936,-0.048171087355043489,8.2784470416666665,-0.6292600416666666,-3.1871612499999999
1403636583438555392,0.080983277292536876,-0.12217304763960307,-0.037699111843077518,8.572646541666666,-0.5475379583333333,-3.0972669583333334
1403636583443555584,0.095644043009289262,-0.13124875974997358,-0.014660765716752367,8.8178127916666664,-0.40861041666666664,-2.9093061666666666
1403636583448555520,0.11239920382843484,-0.1270599695451872,0.018849555921538759,9.193734375,-0.27785508333333331,-2.6804843333333328
1403636583453555456,0.1291543646475804,-0.1165879940332212,0.065624379874986788,9.4307284166666658,-0.26151066666666667,-2.5170401666666664
1403636583458555392,0.14451326206513049,-0.11239920382843484,0.094247779607693802,9.5451393333333332,-0.22882183333333334,-2.4026292499999999
1403636583463555584,0.15079644737231007,-0.099832833214075656,0.11728612573401893,9.5124504999999999,-0.15527195833333335,-2.3372515833333334
1403636583468555520,0.14870205226991687,-0.087964594300514204,0.1270599695451872,9.471589458333332,-0.057205458333333334,-2.4026292499999999
1403636583473555456,0.14451326206513049,-0.084473935796525554,0.13194689145077129,9.3163174999999985,0.11441091666666667,-2.4843513333333336
1403636583478555392,0.1270599695451872,-0.087964594300514204,0.11868238913561441,9.0057735833333332,0.30237170833333332,-2.6477955
1403636583483555584,0.098436569812480182,-0.090058989402907408,0.10122909661567112,8.8014683749999989,0.4494714583333333,-2.827584083333333
1403636583488555520,0.065624379874986788,-0.10122909661567112,0.07609635538695278,8.5889909583333335,0.53936574999999998,-2.9501672083333332
1403636583493555456,0.029321531433504733,-0.11170107212763709,0.046774823953448029,8.482752249999999,0.55571016666666662,-3.1054391666666663
1403636583498555392,-0.0027925268031909274,-0.11938052083641214,0.0090757121103705145,8.5072688749999994,0.44129924999999998,-3.1871612499999999
1403636583503555584,-0.028623399732707,-0.13264502315156904,-0.028623399732707,8.6053353749999992,0.40043820833333332,-3.2770555416666665
1403636583508555520,-0.049567350756638949,-0.13823007675795088,-0.061435589670200401,8.7687795416666656,0.34323275000000003,-3.3342610000000001
1403636583513555456,-0.05305800926062762,-0.13962634015954636,-0.072605696882964116,8.8995348749999987,0.21247741666666667,-3.3342610000000001
1403636583518555392,-0.048171087355043489,-0.13753194505715316,-0.080285145591739146,9.0956678750000002,0.16344416666666667,-3.342433208333333
1403636583523555584,-0.035604716740684328,-0.13962634015954636,-0.071907565182166372,9.1692177499999996,0.065377666666666667,-3.2198500833333328
1403636583528555520,-0.018151424220741029,-0.14521139376592823,-0.058643062867009467,9.2019065833333329,-0.040861041666666667,-3.0727503333333335
1403636583533555456,0.008377580409572781,-0.14940018397071461,-0.0307177948351002,9.2836286666666652,-0.16344416666666667,-2.9501672083333332
1403636583538555392,0.0307177948351002,-0.15917402778188286,-0.00069813170079773186,9.3244897083333331,-0.22064962499999999,-2.803067458333333
1403636583543555584,0.043982297150257102,-0.16336281798666924,0.027925268031909273,9.332661916666666,-0.16344416666666667,-2.6641399166666666
1403636583548555520,0.043982297150257102,-0.1647590813882647,0.049567350756638949,9.3735229583333322,-0.23699404166666665,-2.5497290000000001
1403636583553555456,0.045378560551852569,-0.16545721308906244,0.071209433481368656,9.3571785416666664,-0.31871612500000002,-2.5252123749999997
1403636583558555392,0.039095375244672985,-0.15917402778188286,0.085870199198121014,9.2591120416666666,-0.23699404166666665,-2.4843513333333336
1403636583563555584,0.022340214425527419,-0.15638150097869194,0.1075122819228507,9.0874956666666655,-0.22064962499999999,-2.5170401666666664
1403636583568555520,-0.0048869219055841231,-0.15917402778188286,0.1096066770252439,9.0221180000000007,-0.098066500000000001,-2.5905900416666663
1403636583573555456,-0.039095375244672985,-0.16196655458507375,0.10192722831646883,8.9567403333333324,0.032688833333333334,-2.6641399166666666
1403636583578555392,-0.069813170079773182,-0.17523105690023066,0.074001960284559576,8.8995348749999987,0.14709974999999997,-2.8112396666666668
1403636583583555584,-0.1096066770252439,-0.19128808601857852,0.042586033748661642,8.9403959166666649,0.21247741666666667,-2.9665116249999999
1403636583588555520,-0.1361356816555577,-0.19966566642815131,0.0034906585039886592,8.9730847499999999,0.28602729166666663,-3.1299557916666663
1403636583593555456,-0.15498523757709648,-0.20943951023931953,-0.031415926535897934,9.0302902083333318,0.35957716666666667,-3.3260887916666664
1403636583598555392,-0.15917402778188286,-0.2199114857512855,-0.056548667764616284,9.2345954166666662,0.40043820833333332,-3.5303939999999998
1403636583603555584,-0.15847589608108512,-0.228987197861656,-0.071907565182166372,9.1610455416666667,0.196133,-3.5630828333333331
1403636583608555520,-0.1361356816555577,-0.24504422698000386,-0.060039326268604934,9.1447011249999992,-0.14709974999999997,-3.5303939999999998
1403636583613555456,-0.10122909661567112,-0.25900686099595849,-0.02583087292951608,9.2264232083333333,-0.41678262500000002,-3.5957716666666664
1403636583618555392,-0.043982297150257102,-0.27366762671271089,0.0034906585039886592,9.2999730833333327,-0.6701210833333332,-3.6529771249999996
1403636583623555584,0.031415926535897934,-0.28763026072866549,0.041189770347066175,9.3735229583333322,-0.89894291666666659,-3.6856659583333333
1403636583628555520,0.090058989402907408,-0.29112091923265415,0.078888882190143686,9.4879338749999995,-0.98066500000000001,-3.7265269999999999
1403636583633555456,0.13962634015954636,-0.30019663134302466,0.114493598930828,9.5369671250000003,-0.89894291666666659,-3.7673880416666665
1403636583638555392,0.17453292519943295,-0.30857421175259747,0.15149457907310779,9.5124504999999999,-0.78453200000000001,-3.7346992083333332
1403636583643555584,0.19408061282176942,-0.314857397059777,0.18709929581379212,9.5614837499999989,-0.63743225000000003,-3.7510436249999999
1403636583648555520,0.20315632493213995,-0.32812189937493397,0.2199114857512855,9.5778281666666665,-0.38409379166666668,-3.6856659583333333
1403636583653555456,0.19757127132575814,-0.34487706019407954,0.24015730507441974,9.6268614166666655,-0.16344416666666667,-3.5957716666666664
1403636583658555392,0.17523105690023066,-0.35395277230445005,0.24853488548399255,9.7984777916666665,0.016344416666666667,-3.6284604999999996
1403636583663555584,0.14800392056911915,-0.37070793312359557,0.23736477827122882,9.9128887083333321,0.22882183333333334,-3.6121160833333334
1403636583668555520,0.11309733552923257,-0.37978364523396613,0.21781709064889232,10.043644041666665,0.36774937499999999,-3.6039438749999997
1403636583673555456,0.08307767239493008,-0.38327430373795479,0.20734511513692636,10.010955208333332,0.38409379166666668,-3.6284604999999996
1403636583678555392,0.057246799465414,-0.38606683054114571,0.20734511513692636,10.100849499999999,0.37592158333333331,-3.7346992083333332
1403636583683555584,0.041189770347066175,-0.39304814754912304,0.21432643214490363,10.068160666666666,0.38409379166666668,-3.7265269999999999
1403636583688555520,0.034906585039886591,-0.40212385965949354,0.22060961745208327,10.059988458333333,0.26968287499999999,-3.7510436249999999
1403636583693555456,0.039095375244672985,-0.40770891326587533,0.22968532956245377,10.133538333333334,0.18796079166666665,-3.8409379166666664
1403636583698555392,0.047472955654245766,-0.41957715217943675,0.23247785636564469,10.149882749999998,0.073549874999999987,-3.8981433750000001
1403636583703555584,0.062831853071795868,-0.42446407408502096,0.23457225146803787,10.100849499999999,-0.040861041666666667,-3.92266
1403636583708555520,0.07958701389094143,-0.43353978619539146,0.23876104167282428,10.117193916666666,-0.13892754166666665,-3.9798654583333328
1403636583713555456,0.091455252804502868,-0.43842670810097562,0.24294983187761068,10.100849499999999,-0.016344416666666667,-4.0942763749999997
1403636583718555392,0.10053096491487339,-0.44261549830576197,0.24155356847601517,9.9537497499999983,0.098066500000000001,-4.0125542916666666
1403636583723555584,0.098436569812480182,-0.44540802510895289,0.22619467105846514,9.9537497499999983,0.057205458333333334,-3.947176625
1403636583728555520,0.091455252804502868,-0.45448373721932339,0.21223203704251048,10.002782999999999,-0.0081722083333333334,-3.9635210416666666
1403636583733555456,0.092851516206098328,-0.45588000062091888,0.21153390534171271,10.010955208333332,-0.024516625,-3.9553488333333329
1403636583738555392,0.088662726001311934,-0.45169121041613247,0.21083577364091499,10.002782999999999,-0.13892754166666665,-3.9390044166666667
1403636583743555584,0.08307767239493008,-0.45029494701453704,0.21223203704251048,10.059988458333333,-0.17161637500000002,-3.947176625
1403636583748555520,0.080285145591739146,-0.43982297150257099,0.21711895894809458,10.027299624999999,-0.11441091666666667,-4.0779319583333331
1403636583753555456,0.074001960284559576,-0.42516220578581865,0.23038346126325149,9.994610791666668,-0.098066500000000001,-4.1841706666666667
1403636583758555392,0.064926248174189058,-0.41189770347066179,0.24085543677521751,10.002782999999999,-0.081722083333333334,-4.2740649583333337
1403636583763555584,0.052359877559829883,-0.40840704496667313,0.24853488548399255,9.9210609166666668,-0.032688833333333334,-4.355787041666666
1403636583768555520,0.039793506945470715,-0.39374627924992073,0.25551620249196988,9.8965442916666664,-0.065377666666666667,-4.4211647083333325
1403636583773555456,0.02722713633111154,-0.39793506945470714,0.2527236756887789,9.9210609166666668,-0.11441091666666667,-4.4375091250000001
1403636583778555392,0.018151424220741029,-0.40352012306108898,0.23108159296404923,10.019127416666667,-0.10623870833333333,-4.5192312083333332
1403636583783555584,0.0076794487087750501,-0.40212385965949354,0.20734511513692636,10.092677291666664,-0.13075533333333333,-4.4293369166666663
1403636583788555520,0.0013962634015954637,-0.39514254265151627,0.18570303241219666,10.215260416666666,-0.20430520833333332,-4.3394426250000002
1403636583793555456,-0.0013962634015954637,-0.38885935734433663,0.1647590813882647,10.329671333333332,-0.21247741666666667,-4.2904093749999994
1403636583798555392,-0.0034906585039886592,-0.38397243543875248,0.14172073526193954,10.239777041666667,-0.13892754166666665,-4.1759984583333329
1403636583803555584,-0.0041887902047863905,-0.36861353802120245,0.12217304763960307,10.313326916666666,-0.14709974999999997,-4.1351374166666668
1403636583808555520,-0.00069813170079773186,-0.35465090400524774,0.10611601852125524,10.272465875,-0.11441091666666667,-4.126965208333333
1403636583813555456,0.0020943951023931952,-0.33999013828849539,0.097040306410884708,10.117193916666666,-0.14709974999999997,-4.0697597499999993
1403636583818555392,0.0041887902047863905,-0.32742376767413622,0.092153384505300612,9.994610791666668,-0.30237170833333332,-4.0942763749999997
1403636583823555584,0.0097738438111682462,-0.31764992386296798,0.093549647906896058,9.872027666666666,-0.31871612500000002,-4.2005150833333333
1403636583828555520,0.008377580409572781,-0.31066860685499065,0.097738438111682452,9.7494445416666657,-0.29419949999999995,-4.2740649583333337
1403636583833555456,0.008377580409572781,-0.2918190509334519,0.10611601852125524,9.7412723333333329,-0.28602729166666663,-4.3803036666666664
1403636583838555392,0.0055850536063818549,-0.27646015351590175,0.099832833214075656,9.8066499999999994,-0.20430520833333332,-4.5274034166666661
1403636583843555584,-0.0034906585039886592,-0.26529004630313807,0.095644043009289262,9.8556832499999985,-0.032688833333333334,-4.6091254999999993
1403636583848555520,-0.01117010721276371,-0.25621433419276757,0.084473935796525554,9.831166624999998,0.11441091666666667,-4.666330958333333
1403636583853555456,-0.025132741228718346,-0.24783675378319478,0.073303828583761846,9.8801998750000006,0.13075533333333333,-4.7317086249999996
1403636583858555392,-0.035604716740684328,-0.24294983187761068,0.056548667764616284,10.051816249999998,0.15527195833333335,-4.7889140833333332
1403636583863555584,-0.046774823953448029,-0.23596851486963336,0.038397243543875248,10.149882749999998,0.073549874999999987,-4.7725696666666666
1403636583868555520,-0.05375614096142535,-0.22619467105846514,0.010471975511965976,10.280638083333333,0.057205458333333334,-4.7643974583333328
1403636583873555456,-0.055850536063818547,-0.2199114857512855,-0.016057029118347832,10.427737833333332,0.016344416666666667,-4.8052584999999999
1403636583878555392,-0.05445427266222308,-0.20874137853852182,-0.041887902047863905,10.476771083333333,0.057205458333333334,-4.7643974583333328
1403636583883555584,-0.05445427266222308,-0.1982694030265558,-0.057944931166211737,10.533976541666666,-0.057205458333333334,-4.6908475833333334
1403636583888555520,-0.050963614158234416,-0.18291050560900574,-0.074001960284559576,10.566665374999998,-0.196133,-4.7317086249999996
1403636583893555456,-0.040491638646268438,-0.17243853009703977,-0.075398223686155036,10.566665374999998,-0.27785508333333331,-4.7398808333333333
1403636583898555392,-0.02722713633111154,-0.16126842288427606,-0.074001960284559576,10.542148749999999,-0.4903325,-4.7643974583333328
1403636583903555584,-0.0069813170079773184,-0.15009831567151233,-0.062831853071795868,10.558493166666667,-0.58022679166666657,-4.8297751249999994
1403636583908555520,0.0097738438111682462,-0.14800392056911915,-0.05375614096142535,10.525804333333332,-0.49850470833333332,-4.8542917499999998
1403636583913555456,0.027925268031909273,-0.13473941825396224,-0.043982297150257102,10.509459916666668,-0.45764366666666667,-4.8951527916666659
1403636583918555392,0.037699111843077518,-0.1291543646475804,-0.039095375244672985,10.444082249999999,-0.37592158333333331,-5.0095637083333333
1403636583923555584,0.046774823953448029,-0.12496557444279401,-0.035604716740684328,10.468598874999998,-0.3105439166666667,-5.0585969583333332
1403636583928555520,0.048171087355043489,-0.11379546723003027,-0.038397243543875248,10.509459916666668,-0.30237170833333332,-5.1239746249999998
1403636583933555456,0.048171087355043489,-0.1054178868204575,-0.043284165449459372,10.550320958333334,-0.30237170833333332,-5.1730078749999997
1403636583938555392,0.048869219055841226,-0.10262536001726656,-0.05375614096142535,10.607526416666667,-0.25333845833333329,-5.1730078749999997
1403636583943555584,0.049567350756638949,-0.096342174710086978,-0.060039326268604934,10.583009791666665,-0.17978858333333333,-5.1321468333333327
1403636583948555520,0.049567350756638949,-0.091455252804502868,-0.069813170079773182,10.583009791666665,-0.30237170833333332,-5.1403190416666664
1403636583953555456,0.055850536063818547,-0.087266462599716474,-0.07819075048934597,10.705592916666665,-0.37592158333333331,-5.1403190416666664
1403636583958555392,0.062831853071795868,-0.080285145591739146,-0.075398223686155036,10.697420708333333,-0.42495483333333334,-5.0912857916666665
1403636583963555584,0.069115038378975438,-0.074001960284559576,-0.062831853071795868,10.811831625,-0.4903325,-5.0259081249999991
1403636583968555520,0.08377580409572781,-0.067020643276582248,-0.05375614096142535,10.999792416666665,-0.53119354166666666,-5.0504247499999995
1403636583973555456,0.094945911308491532,-0.058643062867009467,-0.029321531433504733,10.999792416666665,-0.49850470833333332,-5.0095637083333333
1403636583978555392,0.10681415022205297,-0.044680428851054839,-0.010471975511965976,11.056997874999999,-0.45764366666666667,-4.9932192916666667
1403636583983555584,0.10890854532444616,-0.036302848441482058,0.0090757121103705145,11.187753208333334,-0.35140495833333335,-5.0095637083333333
1403636583988555520,0.11100294042683936,-0.032812189937493394,0.020943951023931952,11.204097624999999,-0.26968287499999999,-5.0340803333333328
1403636583993555456,0.11100294042683936,-0.020245819323134219,0.02652900463031381,11.253130874999998,-0.22882183333333334,-4.9768748749999991
1403636583998555392,0.11239920382843484,-0.018849555921538759,0.032114058236695664,11.293991916666666,-0.24516625,-5.0013914999999995
1403636584003555584,0.11519173063162574,-0.013962634015954637,0.037000980142279788,11.32668075,-0.20430520833333332,-5.0422525416666666
1403636584008555520,0.12007865253720987,-0.0076794487087750501,0.038397243543875248,11.244958666666667,-0.22064962499999999,-5.0177359166666671
