#timestamp [ns],w_RS_S_x [rad s^-1],w_RS_S_y [rad s^-1],w_RS_S_z [rad s^-1],a_RS_S_x [m s^-2],a_RS_S_y [m s^-2],a_RS_S_z [m s^-2]
1520505540745522029,-0.2578479503,0.0562881840,0.0614856892,0.4450573527,0.2086204516,9.3405351281
1520505540750539029,-0.2337126972,0.0665070207,0.0574605033,0.4570830299,0.1438659321,9.2963197516
1520505540755554029,-0.2052978877,0.0810932000,0.0553545507,0.4570830299,0.1570564768,9.2649290021
1520505540760571029,-0.1756306731,0.0936445504,0.0516074274,0.3969546442,0.1678534236,9.2782873143
1520505540765586029,-0.1497410366,0.1000746205,0.0480911662,0.4089803213,0.1330774147,9.2758798867
1520505540770602029,-0.1258621867,0.1062125185,0.0445764156,0.3909418056,0.0755200793,9.3214352050
1520505540775618029,-0.0989779125,0.1053605546,0.0401910726,0.3680930191,0.0503399099,9.3704922033
1520505540780635029,-0.0783760620,0.1056767664,0.0339324688,0.3464468003,0.0767226851,9.3695150249
1520505540785651029,-0.0590392326,0.1028010963,0.0225113726,0.3608776128,0.0527387527,9.4774773388
1520505540790667029,-0.0392063133,0.0964348362,0.0088982988,0.4294239725,0.0323480269,9.4710193096
1520505540795682029,-0.0216333743,0.0888912255,-0.0006612784,0.4582855976,0.0023672685,9.4754161975
1520505540800698029,-0.0100919639,0.0792975474,-0.0072492110,0.3753084254,0.0107677140,9.5691871774
1520505540805714029,-0.0023304093,0.0656390345,-0.0198132756,0.3428390971,0.0755238257,9.5915208047
1520505540810731029,0.0086897187,0.0473262051,-0.0348538901,0.3909418056,0.0539355517,9.6026950901
1520505540815746029,0.0146895823,0.0304559458,-0.0452747744,0.3680930191,0.0455433482,9.6633571571
1520505540820763029,0.0176722799,0.0138824455,-0.0581227481,0.3476493680,0.0683286085,9.6728310773
1520505540825779029,0.0173898962,-0.0015275251,-0.0706852161,0.3741058577,0.0875127948,9.6469876896
1520505540830794029,0.0118301900,-0.0181102004,-0.0813529540,0.3873341025,0.0983040283,9.6259298188
1520505540835810029,0.0095436529,-0.0326635589,-0.0876824634,0.4089803213,0.1162894488,9.6384851712
1520505540840827029,0.0077599331,-0.0472174490,-0.0937423603,0.3873341025,0.1270833985,9.6293881865
1520505540845841029,0.0059816744,-0.0556427944,-0.1032726690,0.4113854568,0.1162892615,9.5640845480
1520505540850859029,0.0059613236,-0.0634781256,-0.1152367118,0.4426522173,0.1618541624,9.5311957509
1520505540855874029,0.0049417953,-0.0704557226,-0.1212402086,0.4763241133,0.1834360675,9.5145769459
1520505540860889029,0.0107144587,-0.0736492184,-0.1247924938,0.4931600612,0.2110149860,9.4609275584
1520505540865906029,0.0164812769,-0.0788722077,-0.1321479832,0.5256293895,0.2301987040,9.4187556301
1520505540870922029,0.0247660975,-0.0808911680,-0.1386720482,0.5953783168,0.2277949909,9.3762418931
1520505540875938029,0.0345645564,-0.0808800440,-0.1413957093,0.6230373742,0.2241954154,9.3306525706
1520505540880953029,0.0516585104,-0.0759161699,-0.1427423835,0.6158219680,0.2445813646,9.3411622178
1520505540885969029,0.0697626740,-0.0677488575,-0.1432548330,0.6374681868,0.2937444361,9.2920935378
1520505540890986029,0.0868623871,-0.0601698069,-0.1418760405,0.6543041348,0.3441070226,9.3162855778
1520505540896001029,0.0996932309,-0.0505541953,-0.1399326603,0.7204453590,0.3357078883,9.3261092807
1520505540901018029,0.1117729931,-0.0391920288,-0.1374334496,0.6855708953,0.3536977108,9.3798898091
1520505540906033029,0.1220988502,-0.0257988724,-0.1319394054,0.6987991402,0.3500992593,9.3867374252
1520505540911048029,0.1299134322,-0.0121196867,-0.1248151956,0.7324710361,0.3776768666,9.4375171228
1520505540916066029,0.1314384632,-0.0025172468,-0.1196042621,0.7769660415,0.4004570692,9.4405482501
1520505540921082029,0.1309507670,0.0035797784,-0.1114402670,0.7493069841,0.4028575042,9.5175166287
1520505540926098029,0.1271972876,0.0111353601,-0.1043412726,0.6903811662,0.3908706893,9.5669119160
1520505540931113029,0.1206788586,0.0172285655,-0.0956249843,0.6735452182,0.4100582473,9.5833270927
1520505540936130029,0.1098866834,0.0242037204,-0.0904111892,0.5821500720,0.4532344207,9.6109038917
1520505540941145029,0.0995927070,0.0282666838,-0.0857616501,0.6410758899,0.4628229548,9.6788874825
1520505540946161029,0.0852790472,0.0323244297,-0.0797519139,0.6567092702,0.4448346308,9.7240764711
1520505540951177029,0.0686991227,0.0331767882,-0.0740329771,0.6759503536,0.4208503238,9.6936968342
1520505540956194029,0.0531236056,0.0349102499,-0.0707441510,0.6663298119,0.3872751412,9.6973096480
1520505540961208029,0.0372959546,0.0363536856,-0.0679981731,0.6543041348,0.4184537289,9.7218013188
1520505540966226029,0.0217265533,0.0427500282,-0.0649443235,0.6158219680,0.4172575855,9.7616899444
1520505540971241029,0.0056512534,0.0462301433,-0.0611001337,0.6470887285,0.4136577291,9.6986333474
1520505540976256029,-0.0086626652,0.0520449376,-0.0583236098,0.6639246765,0.4220504008,9.6647591166
1520505540981274029,-0.0192082893,0.0569870551,-0.0555607560,0.6386707545,0.3848790146,9.6069339745
1520505540986290029,-0.0285023903,0.0584337790,-0.0530974587,0.6723426505,0.3956686559,9.5647585266
1520505540991305029,-0.0337811162,0.0578511277,-0.0539037414,0.6482912962,0.3740860015,9.5638515318
1520505540996320029,-0.0378013761,0.0557989342,-0.0498536470,0.6723426505,0.4388377111,9.5379871194
1520505541001337029,-0.0347823285,0.0531543452,-0.0412217868,0.7288633330,0.5515525089,9.5384892078
1520505541006354029,-0.0292563613,0.0470184969,-0.0342445462,0.6747477859,0.5587515662,9.5401710633
1520505541011368029,-0.0224763581,0.0411839950,-0.0307845128,0.6795580568,0.5155821363,9.4588162625
1520505541016385029,-0.0104064166,0.0417489086,-0.0224155465,0.7805737446,0.4556172477,9.4125678905
1520505541021401029,0.0019121853,0.0408591833,-0.0148698001,0.7877891509,0.4400278602,9.4229721571
1520505541026416029,0.0154865326,0.0390943398,-0.0067919648,0.7938019895,0.5011835535,9.4379618670
1520505541031432029,0.0275522949,0.0367461365,0.0012842246,0.8190559115,0.5047790079,9.4040103781
1520505541036448029,0.0438960297,0.0375997377,0.0112707550,0.7661429321,0.5383590608,9.4358705458
1520505541041465029,0.0604911105,0.0396240746,0.0193718898,0.7312684684,0.5251712323,9.4943300529
1520505541046480029,0.0768234565,0.0343687988,0.0255240928,0.7168376559,0.5191766541,9.5142328075
1520505541051497029,0.0936611288,0.0314462530,0.0311520553,0.7769660415,0.5635401668,9.5903057901
1520505541056513029,0.1069832599,0.0314405446,0.0351855074,0.8034225312,0.5467501403,9.6144696726
1520505541061527029,0.1188040627,0.0352178738,0.0408739354,0.7745609061,0.5563455115,9.6519298458
1520505541066544029,0.1311271653,0.0425087682,0.0403655513,0.7469018487,0.5371614190,9.7196221209
1520505541071559029,0.1379224856,0.0503802656,0.0398718813,0.7024068433,0.5299700418,9.7816558536
1520505541076576029,0.1419547968,0.0600026293,0.0380439542,0.6290502128,0.5407680189,9.8730065664
1520505541081592029,0.1409522988,0.0670180455,0.0297122524,0.6470887285,0.4999958396,9.9205186502
1520505541086608029,0.1351732765,0.0731596228,0.0205711114,0.6843683276,0.4748109873,9.9341260770
1520505541091624029,0.1281434760,0.0822087256,0.0136189020,0.6747477859,0.4412358047,9.9830625051
1520505541096639029,0.1190990234,0.0903930852,0.0028761146,0.6795580568,0.4460319917,9.9795245756
1520505541101657029,0.1027651014,0.0974097799,-0.0081325761,0.7132299527,0.4292414033,9.9722403411
1520505541106672029,0.0897034273,0.1067515464,-0.0164240906,0.7084196819,0.4208477950,10.0443482718
1520505541111687029,0.0771397404,0.1161088070,-0.0303980022,0.6651272442,0.4904013113,10.1469705002
1520505541116704029,0.0560214493,0.1114478539,-0.0339114635,0.6254425097,0.5935304785,10.2890377663
1520505541121721029,0.0369099774,0.1012382706,-0.0326010710,0.6278476451,0.6378984869,10.3133761136
1520505541126737029,0.0233222418,0.0881199219,-0.0324053609,0.6663298119,0.5959255749,10.2375031217
1520505541131752029,0.0110046709,0.0805179753,-0.0245944607,0.6494938639,0.6762692945,10.1876164567
1520505541136768029,-0.0003106607,0.0676576609,-0.0116850709,0.5929731814,0.7254384539,10.1462814691
1520505541141784029,-0.0066024386,0.0518803714,0.0030865748,0.5653141240,0.7326354506,10.0930850475
1520505541146799029,-0.0066038265,0.0419332337,0.0178910142,0.5039831707,0.6487003976,10.0205487900
1520505541151816029,-0.0051007145,0.0319976133,0.0286344648,0.4835395195,0.5863466878,9.9011077543
1520505541156831029,0.0026869852,0.0255698097,0.0361463736,0.5124011447,0.4700278189,9.8219144700
1520505541161847029,0.0150083667,0.0296467331,0.0388600863,0.5051857384,0.4028765172,9.7337272428
1520505541166863029,0.0285877831,0.0351825283,0.0410414890,0.5075908738,0.3345253257,9.7302840531
1520505541171880029,0.0429238285,0.0445146304,0.0402743868,0.5087934415,0.3081441428,9.6849744593
1520505541176897029,0.0554951563,0.0518158213,0.0359778935,0.4811343841,0.3213368416,9.6956901085
1520505541181911029,0.0657994747,0.0564994928,0.0295012257,0.5268319572,0.3021470357,9.6557511313
1520505541186928029,0.0718415689,0.0687589450,0.0225492006,0.5977834523,0.2313922248,9.6446702284
1520505541191944029,0.0753778061,0.0877258128,0.0132180607,0.6531015671,0.2229939335,9.6487885570
1520505541196959029,0.0741405063,0.1063943263,0.0057873867,0.6759503536,0.1954119242,9.7218081249
1520505541201975029,0.0698844960,0.1224377408,-0.0011166026,0.7204453590,0.2050015822,9.7748243050
1520505541206991029,0.0636166015,0.1381926252,-0.0093718107,0.6951914370,0.2481726043,9.8470809401
1520505541212006029,0.0505561623,0.1495791825,-0.0195415848,0.6891785985,0.2601644768,9.8878028104
1520505541217023029,0.0364845021,0.1571802608,-0.0308205757,0.6867734630,0.2949397364,9.9342780678
1520505541222039029,0.0201476711,0.1601088310,-0.0386138389,0.7108248173,0.2625610718,9.9852098728
1520505541227054029,0.0033066507,0.1589447091,-0.0415674656,0.6915837339,0.2757531150,9.9714385636
1520505541232071029,-0.0132881712,0.1551633239,-0.0464353881,0.5665166917,0.3153344896,9.9888873166
1520505541237088029,-0.0276261415,0.1484718933,-0.0524119255,0.4606907330,0.3249358551,9.9957187266
1520505541242103029,-0.0407173834,0.1350812961,-0.0592535652,0.4763241133,0.3177397950,9.9769792736
1520505541247120029,-0.0495392817,0.1164328826,-0.0607322369,0.4955651967,0.3321279815,9.9523729376
1520505541252135029,-0.0573513704,0.0992330443,-0.0589551092,0.5268319572,0.3153375804,9.9067613627
1520505541257151029,-0.0596379663,0.0791186131,-0.0561282967,0.5075908738,0.2769665854,9.8872296152
1520505541262166029,-0.0561407726,0.0622131330,-0.0538288567,0.4378419465,0.2469935071,9.7984526575
1520505541267183029,-0.0518819788,0.0525998458,-0.0541806987,0.3969546442,0.1822431087,9.7454551519
1520505541272199029,-0.0488864888,0.0415451692,-0.0604933323,0.4306265402,0.1342748693,9.7614441992
1520505541277215029,-0.0406111282,0.0322401388,-0.0665318826,0.4173982953,0.1366741804,9.7615706162
1520505541282231029,-0.0313328108,0.0232356280,-0.0758166275,0.4570830299,0.0887054726,9.7066103570
1520505541287247029,-0.0250691109,0.0151048177,-0.0853596483,0.4979703321,0.0647194797,9.6981007642
1520505541292263029,-0.0142749950,0.0113429053,-0.0935249944,0.5328447958,0.0419330956,9.6966213911
1520505541297278029,-0.0059929422,0.0087477319,-0.1024884186,0.5749346657,-0.0060357995,9.7067177832
1520505541302295029,0.0025397469,0.0046913636,-0.1098401495,0.6122142648,-0.0396146348,9.7319548350
1520505541307310029,0.0133348782,0.0029749704,-0.1201543012,0.5496807438,-0.0695882751,9.6872691172
1520505541312325029,0.0243849621,0.0047589321,-0.1317949720,0.5111985769,-0.0587930141,9.6667145638
1520505541317342029,0.0382060645,0.0114975139,-0.1434029844,0.4679061393,-0.0707810466,9.7206062611
1520505541322358029,0.0447325539,0.0147439104,-0.1577295977,0.4378419465,-0.0539907392,9.7464496837
1520505541327374029,0.0532720724,0.0194458318,-0.1712371917,0.4522727590,-0.0360047567,9.7753452818
1520505541332392029,0.0630733149,0.0258870832,-0.1812166842,0.4618933007,-0.0551917528,9.8519718518
1520505541337407029,0.0701068790,0.0285334252,-0.1890555757,0.4450573527,-0.0479955990,9.9299923515
1520505541342423029,0.0733625632,0.0271083765,-0.2004356861,0.4570830299,-0.0467973952,9.9275498437
1520505541347439029,0.0725926284,0.0227708211,-0.2129127435,0.4847420873,-0.0324098643,9.9749144974
1520505541352454029,0.0708130446,0.0114228893,-0.2192187323,0.5424653375,-0.0168255345,10.0208232115
1520505541357470029,0.0680371413,0.0023867006,-0.2184708763,0.6086065617,0.0443254758,10.0886862903
1520505541362486029,0.0614858200,-0.0095582543,-0.2201731634,0.5953783168,0.0791015784,10.1329426054
1520505541367502029,0.0536761973,-0.0241319896,-0.2197287575,0.6290502128,0.1054800452,10.1674534570
1520505541372519029,0.0461111381,-0.0451226420,-0.2168988130,0.6855708953,0.1594369622,10.1819585705
1520505541377535029,0.0367996501,-0.0597166357,-0.2091468676,0.6819631922,0.1690303666,10.2191729375
1520505541382550029,0.0257296857,-0.0740206625,-0.2011188860,0.6663298119,0.2086032182,10.1774493326
1520505541387566029,0.0179182047,-0.0938568017,-0.1942213941,0.6543041348,0.2145998569,10.1299126344
1520505541392582029,0.0101041754,-0.1142698825,-0.1894927156,0.6398733222,0.1582413809,10.1463780694
1520505541397598029,0.0060673244,-0.1303165460,-0.1825733244,0.6242399420,0.1294632283,10.1058832608
1520505541402614029,0.0030303486,-0.1489794490,-0.1778401750,0.6037962908,0.1006854504,10.0038416430
1520505541407629029,0.0027648343,-0.1612257103,-0.1749570730,0.5953783168,0.1162749315,10.0271512560
1520505541412645029,0.0035062756,-0.1720139268,-0.1723352684,0.5665166917,0.1102814772,10.0832209339
1520505541417662029,0.0082694274,-0.1801693660,-0.1729474743,0.5544910146,0.1138798351,10.0519565897
1520505541422678029,0.0090106139,-0.1877370556,-0.1759826796,0.5617064209,0.1030870093,10.0518968834
1520505541427694029,0.0087463385,-0.1964750477,-0.1774016349,0.6230373742,0.0599131774,10.0385584382
1520505541432709029,0.0077252224,-0.2060816614,-0.1809902265,0.6531015671,0.0251357636,10.0417861545
1520505541437725029,0.0052072552,-0.2125054888,-0.1764351869,0.6627221088,-0.0216314622,10.0231438150
1520505541442741029,0.0016790392,-0.2203764347,-0.1756770384,0.6362656191,-0.0480104910,10.0303999155
1520505541447758029,-0.0091343298,-0.2244534958,-0.1781230055,0.6037962908,-0.0324191366,10.0667272132
1520505541452773029,-0.0201966650,-0.2264895068,-0.1810940362,0.6206322388,-0.0276238862,10.0560993694
1520505541457789029,-0.0322579502,-0.2247415549,-0.1826815703,0.5941757491,-0.0216261235,10.0795939131
1520505541462805029,-0.0475859831,-0.2209464501,-0.1874940262,0.6134168325,0.0023551864,10.0770589575
1520505541467822029,-0.0616595016,-0.2186077757,-0.1923199311,0.5809475043,0.0263405237,10.0785137511
1520505541472838029,-0.0774948405,-0.2186023235,-0.1966192619,0.5797449366,0.0155483535,10.1319946022
1520505541477854029,-0.0900589429,-0.2168538400,-0.1984764085,0.5508833115,0.0179488822,10.0660309794
1520505541482870029,-0.1031202329,-0.2116111245,-0.1994943069,0.5015780352,-0.0324111755,9.9050219894
1520505541487885029,-0.1101455837,-0.1970155177,-0.2101919203,0.4186008630,-0.1283359469,9.7722766307
1520505541492900029,-0.1101360178,-0.1829977378,-0.2217186857,0.3981572119,-0.1679059886,9.7562441895
1520505541497917029,-0.1071061615,-0.1666527993,-0.2313394458,0.3945495088,-0.2134730437,9.7237837088
1520505541502933029,-0.0988043969,-0.1540930637,-0.2412694532,0.3368262586,-0.2458453395,9.6244327436
1520505541507949029,-0.0930164163,-0.1435805601,-0.2487754418,0.3332185554,-0.2422476372,9.6116807673
1520505541512964029,-0.0857257433,-0.1356848276,-0.2581980599,0.3260031491,-0.2410479349,9.5664262140
1520505541517981029,-0.0708988261,-0.1271917174,-0.2719589678,0.3620801805,-0.2482455872,9.5230827521
1520505541522997029,-0.0580738589,-0.1149223225,-0.2816290533,0.3284082846,-0.2302558584,9.4559886042
1520505541528014029,-0.0414782685,-0.1029479344,-0.2894145415,0.4113854568,-0.2314614613,9.4249663819
1520505541533029029,-0.0251321774,-0.0912723135,-0.2944963272,0.4077777536,-0.2158723548,9.4180134319
1520505541538045029,-0.0075281808,-0.0772592966,-0.3017270289,0.3945495088,-0.2122739033,9.3867607927
1520505541543060029,0.0100724716,-0.0658694690,-0.3087071925,0.4053726182,-0.2026816229,9.3843218046
1520505541548077029,0.0254089687,-0.0571066303,-0.3143504338,0.4294239725,-0.1798998280,9.4410105398
1520505541553093029,0.0369708358,-0.0521332673,-0.3200155745,0.3981572119,-0.1535163035,9.4447755777
1520505541558109029,0.0485314719,-0.0477412166,-0.3262262531,0.4282214047,-0.1187435728,9.4897726546
1520505541563124029,0.0583259751,-0.0491804592,-0.3313959427,0.4715138424,-0.1211452254,9.5230557859
1520505541568141029,0.0658590907,-0.0526704777,-0.3327893509,0.5472756083,-0.0647915260,9.5675870227
1520505541573156029,0.0701257646,-0.0546997545,-0.3360593976,0.6062014263,-0.0456098686,9.6646148576
1520505541578173029,0.0708787750,-0.0576235025,-0.3322953861,0.6470887285,-0.0336216488,9.7316095416
1520505541583188029,0.0731292364,-0.0692932945,-0.3267070462,0.7288633330,-0.0048486475,9.7284612458
1520505541588205029,0.0738780246,-0.0748373179,-0.3237746801,0.7541172550,0.0670978110,9.7269831353
1520505541593220029,0.0721183015,-0.0809825772,-0.3143489915,0.8274738854,0.0898757658,9.7262469094
1520505541598236029,0.0713601200,-0.0906276993,-0.3035991173,0.9140587608,0.1570208860,9.7334736700
1520505541603252029,0.0688535415,-0.0909426497,-0.2952097504,0.9092484899,0.1905971925,9.7137313015
1520505541608268029,0.0668537320,-0.0912712434,-0.2816809449,0.9332998442,0.2793317106,9.6785463506
1520505541613283029,0.0608378889,-0.0895682766,-0.2656941971,0.9068433545,0.3332950902,9.6415626351
1520505541618301029,0.0550754616,-0.0843598559,-0.2529277899,0.8924125419,0.3704695672,9.6858283165
1520505541623316029,0.0493099137,-0.0803118742,-0.2420640962,0.9140587608,0.4460137280,9.7494618746
1520505541628332029,0.0458130414,-0.0745299963,-0.2255098007,0.8563355106,0.4712001726,9.7395398656
1520505541633348029,0.0390499037,-0.0669952638,-0.2111004665,0.8407021303,0.4484177221,9.7292549532
1520505541638364029,0.0310242031,-0.0629532672,-0.1983387510,0.7469018487,0.4364336234,9.7743411112
1520505541643379029,0.0262696096,-0.0562897153,-0.1847514575,0.6819631922,0.4604214895,9.7772740854
1520505541648397029,0.0210060478,-0.0510687143,-0.1765852639,0.7036094110,0.4256447313,9.8479880864
1520505541653411029,0.0185047070,-0.0467178702,-0.1695130571,0.7469018487,0.3740783214,9.8371576904
1520505541658428029,0.0144985645,-0.0403286535,-0.1621519425,0.7396864424,0.3057278792,9.8942396268
1520505541663443029,0.0082258085,-0.0362655717,-0.1569687792,0.7432941455,0.2421731558,9.8965907746
1520505541668459029,0.0037188326,-0.0269554223,-0.1522899592,0.7312684684,0.1990050371,9.8421291555
1520505541673476029,-0.0012918387,-0.0176418278,-0.1489629353,0.7216479267,0.2002049268,9.8352487629
1520505541678492029,-0.0078125415,-0.0080286982,-0.1488774386,0.6807606245,0.1462467922,9.8136186199
1520505541683507029,-0.0143361885,0.0007161052,-0.1509629785,0.6470887285,0.1018812190,9.8546646655
1520505541688524029,-0.0233757250,0.0082987566,-0.1546760187,0.5653141240,0.0719090773,9.9228941921
1520505541693539029,-0.0314232151,0.0083152736,-0.1619658228,0.5244268218,0.0815053851,9.9546606961
1520505541698555029,-0.0397190599,0.0092000184,-0.1670841237,0.5148062801,0.0671164493,9.9919569752
1520505541703572029,-0.0480205383,0.0051275840,-0.1708874875,0.5208191186,0.1246747214,10.0115987688
1520505541708588029,-0.0588347423,0.0007605952,-0.1738767696,0.5593012855,0.1138794604,9.9159389268
1520505541713603029,-0.0678865144,-0.0024459937,-0.1746960592,0.6062014263,0.0994861226,9.8457678244
1520505541718624029,-0.0736711390,-0.0059448725,-0.1747120016,0.6410758899,0.1642369893,9.7721501644
1520505541723635029,-0.0822081758,-0.0021667770,-0.1722323198,0.6783554890,0.1594375242,9.7183333631
1520505541728651029,-0.0897376886,0.0021893824,-0.1678562375,0.7060145464,0.1570370892,9.7052829020
1520505541733667029,-0.0952554935,0.0065419588,-0.1618606136,0.7204453590,0.1654299482,9.6598106417
1520505541738683029,-0.0972545032,0.0097230911,-0.1531749572,0.6939888693,0.1234620939,9.6461633523
1520505541743698029,-0.0997552716,0.0146574327,-0.1463688501,0.6531015671,0.1558420698,9.6860426466
1520505541748715029,-0.0994943913,0.0181381200,-0.1403906301,0.6518989994,0.1414524784,9.6605012167
1520505541753731029,-0.0999871879,0.0216177835,-0.1341404640,0.6302527805,0.1186704962,9.6177347988
1520505541758747029,-0.0957029702,0.0286039448,-0.1308484935,0.5472756083,0.0946941503,9.6429708576
1520505541763762029,-0.0906639700,0.0385144447,-0.1313233349,0.5472756083,0.1042872737,9.6115836161
1520505541768780029,-0.0868809818,0.0481301540,-0.1307158821,0.5316422281,0.0551237339,9.5757572621
1520505541773795029,-0.0828446678,0.0603735216,-0.1319827096,0.4594881653,0.0191551408,9.5555760545
1520505541778812029,-0.0780555551,0.0726208268,-0.1346036667,0.4462599204,0.0203553115,9.5870815276
1520505541783826029,-0.0732679831,0.0834097524,-0.1366946475,0.3909418056,-0.0048223291,9.5713745009
1520505541788842029,-0.0699934378,0.0909957712,-0.1398894654,0.3717007222,0.0263568205,9.5726935230
1520505541793858029,-0.0664702321,0.0971271511,-0.1439075032,0.4510701913,0.0587274304,9.6055915918
1520505541798874029,-0.0642058611,0.0982899331,-0.1425500819,0.4739189778,0.0899033018,9.7320124839
1520505541803890029,-0.0624487491,0.0968336997,-0.1425644643,0.5520858792,0.1510533755,9.8543792781
1520505541808907029,-0.0611926980,0.0953721703,-0.1406840921,0.6037962908,0.2517771437,9.8979392064
1520505541813921029,-0.0621992694,0.0898150744,-0.1331491788,0.6326579159,0.3644940957,9.9893577395
1520505541818939029,-0.0632025477,0.0842470520,-0.1215560770,0.5376550666,0.4172636734,10.0343924583
1520505541823955029,-0.0649639369,0.0789854159,-0.1156408157,0.4606907330,0.4172696677,10.0293308622
1520505541828971029,-0.0662242652,0.0737290756,-0.1116203092,0.4883497904,0.4160683731,10.0232520954
1520505541833987029,-0.0642167404,0.0693488973,-0.1078697467,0.4991728998,0.4856176747,10.0951318534
1520505541839003029,-0.0662242378,0.0675823202,-0.1013862500,0.5665166917,0.5251840637,10.1595178435
1520505541844017029,-0.0719958153,0.0663817382,-0.0892098423,0.6506964316,0.5611517202,10.1644741291
1520505541849034029,-0.0762596391,0.0669380668,-0.0799989014,0.6783554890,0.5863315149,10.1293160381
1520505541854050029,-0.0805185859,0.0686490071,-0.0667208797,0.6915837339,0.5731399400,10.0408772047
1520505541859067029,-0.0857818850,0.0735764383,-0.0577452715,0.6891785985,0.5947246550,9.9978802404
1520505541864082029,-0.0892807254,0.0822918291,-0.0484734844,0.6687349473,0.6342978811,10.0015270700
1520505541869099029,-0.0920279077,0.0913076410,-0.0424474251,0.6338604837,0.6211100526,9.9065835751
1520505541874115029,-0.0932680930,0.0982777960,-0.0340048146,0.6326579159,0.6678766228,9.8403074706
1520505541879130029,-0.0962720706,0.1043847631,-0.0298943407,0.5809475043,0.6498935438,9.8350176083
1520505541884146029,-0.0970117595,0.1137036736,-0.0279279805,0.5568961500,0.6786747872,9.8131429102
1520505541889161029,-0.0947372660,0.1236138189,-0.0286682338,0.5496807438,0.6822727704,9.8794518379
1520505541894177029,-0.0922150804,0.1311944433,-0.0299678303,0.4390445142,0.6894762297,9.9165481496
1520505541899194029,-0.0907039394,0.1352817018,-0.0326449664,0.3428390971,0.6834880204,10.0557855314
1520505541904210029,-0.0851800186,0.1355920062,-0.0388755669,0.2610644926,0.6655072829,10.1379490921
1520505541909226029,-0.0786600920,0.1312500217,-0.0486607002,0.2538490864,0.6427241768,10.1938244497
1520505541914240029,-0.0744048030,0.1245753464,-0.0581888718,0.2285951644,0.6775012159,10.2556299746
1520505541919258029,-0.0666267984,0.1213993922,-0.0679674464,0.1937207007,0.6547202640,10.3466388671
1520505541924274029,-0.0598542086,0.1182237727,-0.0780147000,0.1985309716,0.7170751914,10.3883684236
1520505541929290029,-0.0528274660,0.1150387820,-0.0845453237,0.1684667787,0.7362637797,10.3991016362
1520505541934306029,-0.0500774178,0.1104039361,-0.0943256793,0.1624539402,0.7326668267,10.3945150937
1520505541939322029,-0.0470735186,0.1078096087,-0.1043614859,0.1925181330,0.7590455745,10.3663052869
1520505541944336029,-0.0453214090,0.1075407663,-0.1124833529,0.1913155653,0.7614439490,10.3744496609
1520505541949353029,-0.0425574198,0.1110552176,-0.1186843655,0.2310002998,0.7266657860,10.3415572742
1520505541954370029,-0.0405394157,0.1174701070,-0.1199919209,0.1997335393,0.7242699403,10.2384331324
1520505541959386029,-0.0410376029,0.1247727340,-0.1266990577,0.1961258361,0.7242702213,10.1559560268
1520505541964400029,-0.0387664926,0.1338160101,-0.1301514392,0.1347948828,0.7398638234,10.1193491768
1520505541969417029,-0.0360002609,0.1384938142,-0.1355319217,0.1937207007,0.7662403234,10.1292091991
1520505541974435029,-0.0329781122,0.1460833767,-0.1400790024,0.2225823258,0.7878226032,10.0731243199
1520505541979450029,-0.0319636804,0.1519070904,-0.1384131322,0.3175851752,0.8345816806,10.0779647359
1520505541984466029,-0.0281897091,0.1556987514,-0.1392028706,0.3476493680,0.8429733220,10.0857989318
1520505541989482029,-0.0246667308,0.1589039027,-0.1386438590,0.3512570711,0.8621592878,10.0427457809
1520505541994496029,-0.0231475490,0.1650133705,-0.1348123320,0.3428390971,0.8549651009,10.0614290356
1520505541999512029,-0.0216422181,0.1638513369,-0.1359062083,0.3308134200,0.8633600205,10.0313221580
1520505542004529029,-0.0241635176,0.1591947557,-0.1383720235,0.3235980137,0.8117975442,10.0616584127
1520505542009545029,-0.0284481783,0.1507465729,-0.1397812881,0.3428390971,0.8177917478,10.1056267554
1520505542014560029,-0.0294699178,0.1379223461,-0.1387950534,0.3512570711,0.8213885134,10.1055413120
1520505542019576029,-0.0347711744,0.1189744568,-0.1367653856,0.3031543626,0.8369810853,10.1187778963
1520505542024593029,-0.0425774138,0.1052675907,-0.1336088514,0.2370131384,0.8261939728,10.0857300238
1520505542029609029,-0.0526458720,0.0906834997,-0.1296431483,0.2297977321,0.7758306370,10.0881736543
1520505542034624029,-0.0624551512,0.0836835175,-0.1285961166,0.2093540810,0.6834984166,10.0303554817
1520505542039640029,-0.0740253688,0.0758108779,-0.1283641247,0.1468205599,0.6595204785,9.9786910535
1520505542044656029,-0.0873587711,0.0644387495,-0.1273439051,0.1684667787,0.5983626310,9.9285678087
1520505542049673029,-0.1006923890,0.0545308280,-0.1290180291,0.1732770496,0.5276129714,9.9564814344
1520505542054688029,-0.1147814833,0.0449205516,-0.1331234428,0.2105566487,0.4904367148,9.9410469558
1520505542059705029,-0.1303829025,0.0318123416,-0.1369821874,0.2177720550,0.4904361528,9.9049502629
1520505542064720029,-0.1422153255,0.0175364283,-0.1395040956,0.2550516541,0.4712470026,9.8337153343
1520505542069736029,-0.1537872092,0.0105474118,-0.1427825312,0.3284082846,0.5060163616,9.7516173383
1520505542074753029,-0.1615885560,0.0038490715,-0.1452541068,0.2911286855,0.5192098097,9.7426701806
1520505542079769029,-0.1658725149,-0.0048941381,-0.1453128650,0.2995466595,0.5803653157,9.7099885782
1520505542084785029,-0.1676425995,-0.0107123198,-0.1491417022,0.3091672012,0.6223344812,9.6552332450
1520505542089801029,-0.1663870267,-0.0104160724,-0.1507650881,0.3103697689,0.6415206344,9.6145277922
1520505542094816029,-0.1668934898,-0.0109888404,-0.1545562434,0.3031543626,0.6535126005,9.6018027456
1520505542099832029,-0.1646327138,-0.0077652421,-0.1610290915,0.2538490864,0.7086769001,9.5917695677
1520505542104848029,-0.1578472769,-0.0013244438,-0.1712735291,0.2045438101,0.7086807401,9.6282759376
1520505542109864029,-0.1495580889,0.0042522612,-0.1850445331,0.1937207007,0.7554480596,9.6329842547
1520505542114879029,-0.1437860683,0.0069148649,-0.1991036465,0.2622670604,0.7974126358,9.7171126483
1520505542119896029,-0.1357606304,0.0031664381,-0.2126747766,0.3223954460,0.8249881825,9.7978505775
1520505542124913029,-0.1279868049,-0.0029226329,-0.2227461280,0.3308134200,0.8441737737,9.8384249710
1520505542129929029,-0.1194575854,-0.0072601876,-0.2338877246,0.3741058577,0.8717506317,9.8193823909
1520505542134944029,-0.1134419344,-0.0151091814,-0.2399109589,0.4113854568,0.9137176430,9.8259514710
1520505542139960029,-0.1051686398,-0.0252854517,-0.2470383621,0.4402470819,0.9532870292,9.8209833857
1520505542144975029,-0.0946269714,-0.0316779359,-0.2522472443,0.4751215456,0.9436911896,9.7985725586
1520505542149992029,-0.0865969310,-0.0383686167,-0.2552893153,0.5160088478,0.9496837073,9.7958444521
1520505542155008029,-0.0770595366,-0.0450572500,-0.2588752784,0.4955651967,0.9892569335,9.7820591224
1520505542160023029,-0.0655034835,-0.0467966576,-0.2605333616,0.4450573527,0.9341004078,9.7268216146
1520505542165040029,-0.0577115537,-0.0476772286,-0.2570374026,0.4101828891,0.9137177367,9.7376402356
1520505542170055029,-0.0494206721,-0.0491309022,-0.2570639199,0.3596750451,0.9029294066,9.7160616369
1520505542175071029,-0.0406228413,-0.0488426277,-0.2546431191,0.3175851752,0.8645601912,9.7385894678
1520505542180086029,-0.0340803214,-0.0441859281,-0.2516436796,0.3163826074,0.8177938083,9.7409710650
1520505542185104029,-0.0295525908,-0.0424424046,-0.2492038291,0.2935338209,0.7518428645,9.7807706692
1520505542190120029,-0.0255296141,-0.0424481137,-0.2465058377,0.2165694873,0.7254677695,9.7687619348
1520505542195135029,-0.0250281220,-0.0453712316,-0.2430119053,0.1432128568,0.6235465467,9.8300068227
1520505542200151029,-0.0217634366,-0.0468261459,-0.2432996341,0.0458048720,0.5408134440,9.7950091541
1520505542205167029,-0.0197602164,-0.0517774384,-0.2438822521,0.0470074397,0.5120339802,9.7834040736
1520505542210183029,-0.0182627106,-0.0564258883,-0.2487904479,0.0626408200,0.4508766010,9.7891222640
1520505542215199029,-0.0175251308,-0.0663231973,-0.2523845296,0.0854896066,0.4244937321,9.8214656241
1520505542220215029,-0.0140187398,-0.0756490375,-0.2513800189,0.0626408200,0.4125041074,9.7891596828
1520505542225232029,-0.0135341329,-0.0875897787,-0.2536364660,0.0794767680,0.4101045153,9.7006752102
1520505542230248029,-0.0087759523,-0.0992411039,-0.2545458949,0.1251743411,0.4532700115,9.7443497921
1520505542235263029,-0.0047681555,-0.1109043793,-0.2511251892,0.1949232684,0.5563906556,9.6784902742
1520505542240279029,-0.0007567558,-0.1217015139,-0.2447218094,0.2382157061,0.6727039050,9.6965497695
1520505542245295029,-0.0005122903,-0.1319231837,-0.2361426155,0.2863184146,0.7806227967,9.7064356223
1520505542250311029,-0.0002643082,-0.1406930298,-0.2256584848,0.3717007222,0.8501662914,9.6427809681
1520505542255327029,0.0042648141,-0.1439299953,-0.2132462286,0.4125880245,0.9257089536,9.6167421608
1520505542260343029,0.0035255838,-0.1436862541,-0.1956571221,0.4594881653,0.9640777944,9.5906810778
1520505542265359029,-0.0034946236,-0.1431572320,-0.1767013949,0.4679061393,0.9832633856,9.5766347055
1520505542270375029,-0.0085049695,-0.1435037611,-0.1569444332,0.4691087070,1.0180383642,9.6346962873
1520505542275391029,-0.0185464357,-0.1461767797,-0.1396308347,0.4318291079,1.0132447060,9.6629552763
1520505542280406029,-0.0305971006,-0.1465129538,-0.1247306308,0.4125880245,0.9496917621,9.6376373652
1520505542285422029,-0.0451652819,-0.1488839767,-0.1120056884,0.3753084254,0.8897376444,9.6496801285
1520505542290439029,-0.0619918948,-0.1480470137,-0.1006048210,0.3584724774,0.8105956877,9.6417861680
1520505542295454029,-0.0798284428,-0.1463166233,-0.0965001567,0.3656878837,0.7854131768,9.6440647817
1520505542300472029,-0.0981656086,-0.1431295073,-0.0923834436,0.3392313940,0.7374496204,9.6432069225
1520505542305486029,-0.1162459753,-0.1355700680,-0.0887749426,0.3849289671,0.6439131083,9.5522061104
1520505542310503029,-0.1305521040,-0.1230490590,-0.0875705631,0.4161957276,0.6091356008,9.4368834383
1520505542315518029,-0.1451030158,-0.1041104045,-0.0890222680,0.4137905922,0.5839538393,9.3741756310
1520505542320534029,-0.1551316033,-0.0854591771,-0.0912962347,0.3837263994,0.5863544616,9.3558716155
1520505542325550029,-0.1628954630,-0.0635974632,-0.0951732233,0.3741058577,0.5599741216,9.3722609968
1520505542330567029,-0.1656369960,-0.0437705582,-0.1001572916,0.2935338209,0.5563829755,9.3230765535
1520505542335582029,-0.1656171900,-0.0262743748,-0.1048937326,0.3380288263,0.5419898250,9.2796581722
1520505542340598029,-0.1628313758,-0.0055631374,-0.1128574044,0.3416365294,0.5467861057,9.2075654545
1520505542345614029,-0.1575388225,0.0099012493,-0.1197835753,0.3260031491,0.5599778680,9.1891104543
1520505542350630029,-0.1484694909,0.0279771903,-0.1220974591,0.3332185554,0.5323970763,9.1832563990
1520505542355646029,-0.1356310689,0.0472267021,-0.1268443645,0.3885366702,0.5467824530,9.1245967366
1520505542360661029,-0.1210321987,0.0647162125,-0.1270085952,0.3777135608,0.5575755598,9.0607736405
1520505542365678029,-0.1066825572,0.0845403430,-0.1285073040,0.3632827482,0.5383904369,9.0190956283
1520505542370694029,-0.0915869425,0.0970735997,-0.1276280771,0.3993597796,0.5204005208,9.0222484486
1520505542375710029,-0.0782519603,0.1081477877,-0.1262156067,0.4474624882,0.5096045105,9.0322500659
1520505542380726029,-0.0656747088,0.1139658324,-0.1207835632,0.4546778944,0.5203962124,8.9868456973
1520505542385742029,-0.0538589241,0.1130766386,-0.1135074293,0.4318291079,0.5239954132,9.0358746315
1520505542390757029,-0.0428006505,0.1069305730,-0.1019411764,0.4907549258,0.5275882451,9.0411082955
1520505542395773029,-0.0350124725,0.0987449927,-0.0909255095,0.5099960092,0.5767515039,9.0931695496
1520505542400789029,-0.0272254863,0.0882217803,-0.0774927142,0.5448704729,0.5971341750,9.0928102242
1520505542405806029,-0.0214473109,0.0773998398,-0.0616234951,0.5448704729,0.5635582431,9.0486814954
1520505542410822029,-0.0156695353,0.0648230363,-0.0433327015,0.5412627698,0.5911387539,9.0730947388
1520505542415838029,-0.0118960777,0.0572011674,-0.0258120193,0.5304396603,0.5827456138,9.0871539972
1520505542420853029,-0.0063640143,0.0484108074,-0.0069507671,0.4979703321,0.5323842449,9.0619519789
1520505542425870029,-0.0056090006,0.0393337482,0.0094822168,0.4089803213,0.5108066481,9.0558663375
1520505542430886029,-0.0003291966,0.0325953648,0.0237602171,0.3500545034,0.4796335864,9.0529838562
1520505542435902029,-0.0000713194,0.0296466533,0.0367237225,0.3043569303,0.4196801243,9.0383792439
1520505542440917029,0.0009420852,0.0290344124,0.0478097912,0.2526465187,0.3897056411,9.0110203399
1520505542445933029,0.0032208245,0.0339545992,0.0605590402,0.2045438101,0.3333497876,9.0894071461
1520505542450950029,0.0029791032,0.0359716110,0.0689619913,0.1877078622,0.2889829032,9.1279650329
1520505542455965029,-0.0005296361,0.0374023886,0.0781782013,0.1516308308,0.2566089216,9.1806442347
1520505542460980029,-0.0037891819,0.0397183447,0.0833424255,0.1227692057,0.2446197652,9.2111525922
1520505542465998029,-0.0088085644,0.0426214797,0.0866205415,0.1059332577,0.2602099019,9.2496520121
1520505542471014029,-0.0150886633,0.0429038470,0.0890693458,0.1408077214,0.3309564707,9.2910807568
1520505542476029029,-0.0198562216,0.0452199408,0.0939658243,0.1335923151,0.3669312454,9.3399259530
1520505542481045029,-0.0271375601,0.0469522810,0.0988625239,0.1384025859,0.4304853132,9.3944379237
1520505542486061029,-0.0319117596,0.0451926336,0.1023751498,0.2141643518,0.5000295572,9.5470356854
1520505542491077029,-0.0371864123,0.0407913893,0.1129028946,0.2574567895,0.5995548406,9.6255430371
1520505542496092029,-0.0371909600,0.0314401324,0.1228419541,0.3452442326,0.7050723607,9.7070978869
1520505542501108029,-0.0407126407,0.0209132180,0.1360252060,0.3969546442,0.8009995672,9.7924996749
1520505542506124029,-0.0407113039,0.0118351349,0.1527301359,0.4149931599,0.8897345536,9.8236154547
1520505542511139029,-0.0432244060,0.0021754835,0.1686236492,0.4282214047,0.9820673359,9.9070710247
1520505542516156029,-0.0404575981,-0.0074908415,0.1877539120,0.4510701913,1.0887890541,9.9555546035
1520505542521172029,-0.0381967712,-0.0180242327,0.2041729801,0.4775266810,1.1499431551,9.9993989262
1520505542526188029,-0.0366797732,-0.0239081501,0.2252282979,0.5136037124,1.1751222942,10.0501575524
1520505542531204029,-0.0344131441,-0.0321192062,0.2449117014,0.5328447958,1.2446709402,10.0429295861
1520505542536220029,-0.0316411025,-0.0385832152,0.2651486018,0.5232242541,1.2074983364,10.0128437333
1520505542541236029,-0.0291135343,-0.0377525113,0.2816539035,0.5568961500,1.2086948543,9.9881097993
1520505542546251029,-0.0265826219,-0.0342986183,0.2979086670,0.5352499312,1.1967051360,10.0173857826
1520505542551269029,-0.0263148496,-0.0314261951,0.3133515472,0.5869603429,1.1355449470,10.0285635410
1520505542556284029,-0.0285590580,-0.0294361944,0.3314978843,0.5737320980,1.1127623092,10.0531195371
1520505542561299029,-0.0313018535,-0.0218984297,0.3453586592,0.5701243949,1.0528055690,9.9962680655
1520505542566316029,-0.0325417330,-0.0155146859,0.3551495530,0.5989860200,0.9868505979,9.9379442601
1520505542571332029,-0.0362935893,-0.0085498860,0.3652201060,0.6242399420,0.9232941886,9.9040582542
1520505542576349029,-0.0375270902,0.0022031688,0.3755854378,0.5701243949,0.8861250502,9.8592976170
1520505542581365029,-0.0415236002,0.0147070900,0.3846165126,0.5773398012,0.8177734841,9.8302404402
1520505542586381029,-0.0422594197,0.0260620500,0.3879511639,0.6110116971,0.7494198575,9.7823314488
1520505542591396029,-0.0414882381,0.0368348317,0.3912785686,0.5677192594,0.7050550336,9.7607153613
1520505542596411029,-0.0409663324,0.0487715962,0.3951564242,0.5725295303,0.6415002165,9.7700276676
1520505542601427029,-0.0406966861,0.0627603373,0.3944510279,0.5665166917,0.6127213146,9.8073028636
1520505542606444029,-0.0369132979,0.0741309097,0.3926369061,0.5629089886,0.6055267531,9.8259392981
1520505542611459029,-0.0323761034,0.0846239817,0.3921674443,0.5761372334,0.5827420548,9.8304813357
1520505542616475029,-0.0258308862,0.0962964913,0.3868333150,0.6037962908,0.6175149729,9.8417996481
1520505542621491029,-0.0162736899,0.1056405629,0.3809347086,0.6470887285,0.6175116011,9.9111069033
1520505542626508029,-0.0074758864,0.1120755930,0.3731214502,0.7312684684,0.6522801172,9.8916593353
1520505542631524029,0.0066002000,0.1176312527,0.3679971803,0.7865865832,0.7014405662,9.9317479982
1520505542636540029,0.0236969297,0.1260982970,0.3642422700,0.9200715993,0.7302095401,9.8874213465
1520505542641555029,0.0377742392,0.1293083119,0.3645111333,1.0896336469,0.7325946149,9.8729850113
1520505542646571029,0.0581368736,0.1325113186,0.3682854252,1.2074852827,0.7397802787,9.9066952184
1520505542651587029,0.0800037372,0.1330924552,0.3720369090,1.2507777204,0.7577640133,9.8760405535
1520505542656604029,0.1023762721,0.1336635907,0.3795751019,1.3205266478,0.7865379512,9.8346585577
1520505542661619029,0.1260043328,0.1333603365,0.3873748378,1.3674267886,0.8009239836,9.8853223624
1520505542666636029,0.1498808774,0.1313103305,0.3946196767,1.4407834191,0.7841303044,9.9229754752
1520505542671653029,0.1730014556,0.1269253107,0.4032008605,1.4227449034,0.7685428838,9.9673277227
1520505542676667029,0.1943646082,0.1216559785,0.4152957388,1.4023012522,0.7385659654,9.9710423740
1520505542681684029,0.2154748389,0.1169773297,0.4244195252,1.4083140908,0.6953964419,9.9721880889
1520505542686699029,0.2328158929,0.1117107928,0.4348985957,1.3541985437,0.6762144098,9.9738956698
1520505542691715029,0.2519096641,0.1035391126,0.4423761634,1.3109061061,0.6954040283,10.0370541159
1520505542696730029,0.2667313553,0.0953657586,0.4498616654,1.3349574603,0.6558305211,10.0926415128
1520505542701747029,0.2828110813,0.0886512765,0.4568148575,1.3469831374,0.6774141122,10.1296920207
1520505542706763029,0.2918533855,0.0816448383,0.4629672570,1.3614139500,0.6438370564,10.1911779311
1520505542711778029,0.2988803320,0.0726052051,0.4664023697,1.3012855644,0.6402443181,10.2545224654
1520505542716796029,0.3051612110,0.0685151713,0.4712294046,1.2736265070,0.6258567872,10.2513192819
1520505542721811029,0.3071678694,0.0685283423,0.4666263906,1.2507777204,0.6210620051,10.2352763400
1520505542726827029,0.3084284643,0.0749545912,0.4609915010,1.1834339285,0.6054784245,10.3184592453
1520505542731842029,0.3086863770,0.0851771864,0.4521408277,1.1557748711,0.5874934723,10.3106109940
1520505542736859029,0.3036686490,0.0991973677,0.4390001214,1.1184952720,0.5731066907,10.3237714663
1520505542741875029,0.2981522046,0.1196438372,0.4199572467,1.0271001258,0.5527284217,10.3595452480
1520505542746890029,0.2893664605,0.1400970395,0.3979444345,1.0258975581,0.5371396898,10.3839771775
1520505542751906029,0.2752968508,0.1591065487,0.3702488443,1.0066564747,0.5107600991,10.4260273662
1520505542756923029,0.2577127975,0.1810292532,0.3423114731,1.0090616101,0.5095607713,10.4794637474
1520505542761936029,0.2378562776,0.1956693721,0.3132405418,1.0210872872,0.5479323283,10.5292814680
1520505542766954029,0.2139742680,0.2065184600,0.2846892697,1.0691899958,0.5755088116,10.5671371214
1520505542771970029,0.1848063580,0.2103693380,0.2571766283,1.0499489123,0.5695146081,10.6242753028
1520505542776986029,0.1553816018,0.2086772556,0.2320571281,1.0908362146,0.5898968108,10.5971281411
1520505542782001029,0.1231871915,0.2031968198,0.2066433158,1.1461543294,0.6330615577,10.5907368925
1520505542787017029,0.0884690117,0.1889702215,0.1825202077,1.1665979805,0.6330599655,10.5115121177
1520505542792034029,0.0529966257,0.1738662605,0.1594740141,1.2026750119,0.6414511387,10.4937206213
1520505542797050029,0.0177725434,0.1552599561,0.1385650439,1.2339417724,0.6474444056,10.4597082685
1520505542802066029,-0.0172013458,0.1337304354,0.1211504728,1.2507777204,0.6054731796,10.3817216796
1520505542807081029,-0.0504180366,0.1101589984,0.1047992566,1.2976778612,0.5718935950,10.3231907262
1520505542812097029,-0.0788636996,0.0845526541,0.0873414275,1.3566036791,0.5682915844,10.2900806558
1520505542817114029,-0.1045416491,0.0595214207,0.0731294613,1.3686293563,0.5383121372,10.2376963607
1520505542822130029,-0.1279543494,0.0356500557,0.0613571001,1.3650216531,0.5227235926,10.1366401533
1520505542827145029,-0.1483526046,0.0120763556,0.0476875400,1.3638190854,0.5227236863,10.0762203727
1520505542832162029,-0.1624660172,-0.0112100544,0.0364434479,1.3842627365,0.5011375665,9.9993409339
1520505542837178029,-0.1763228110,-0.0318797327,0.0273832641,1.3854653043,0.4963409111,9.9412267085
1520505542842194029,-0.1881690847,-0.0534271475,0.0199359526,1.3758447626,0.5023373625,9.8297486826
1520505542847208029,-0.1939800114,-0.0735225610,0.0151940141,1.3962884137,0.4471753108,9.7075783711
1520505542852226029,-0.2007896647,-0.0883712616,0.0096823203,1.3986935491,0.4028069278,9.5960324069
1520505542857242029,-0.2058367958,-0.1011817666,0.0049945588,1.3662242209,0.3704326652,9.4952734916
1520505542862256029,-0.2053513970,-0.1125397388,0.0027425579,1.3493882729,0.3380571850,9.3746059633
1520505542867274029,-0.2048597098,-0.1204061957,0.0024110552,1.3133112415,0.2805012545,9.2936631665
1520505542872290029,-0.2046180866,-0.1262279603,0.0002017596,1.3097035383,0.2265402164,9.2112386812
1520505542877305029,-0.1993467036,-0.1294260235,-0.0017263168,1.2579931267,0.1557949588,9.1397580645
1520505542882321029,-0.1950815704,-0.1329136798,-0.0044663870,1.1834339285,0.1330170977,9.0940202372
1520505542887337029,-0.1898055221,-0.1320294459,-0.0074455238,1.1846364962,0.0886488084,9.0894032219
1520505542892353029,-0.1862861859,-0.1279341155,-0.0128318527,1.2195109599,0.0742564071,9.0344570415
1520505542897368029,-0.1837702455,-0.1241378478,-0.0155130788,1.1750159545,0.0862512768,9.0174462759
1520505542902385029,-0.1797476138,-0.1218008257,-0.0171260370,1.1906493348,0.0562715486,8.9510811382
1520505542907401029,-0.1747154272,-0.1147947015,-0.0211402059,1.2062827150,0.0418806460,8.9846451792
1520505542912416029,-0.1701818787,-0.1048749289,-0.0251312104,1.2086878505,0.0586684246,8.9160389051
1520505542917432029,-0.1648948297,-0.0952462454,-0.0291258382,1.1834339285,0.0502764085,8.9046714571
1520505542922449029,-0.1618667415,-0.0832859150,-0.0336395727,1.1678005482,0.0490784856,8.9025005043
1520505542927465029,-0.1568261026,-0.0681122829,-0.0408380459,1.1557748711,0.0646682477,8.9200345127
1520505542932481029,-0.1540519046,-0.0564361511,-0.0480589956,1.1593825742,0.0850533540,8.9037095034
1520505542937497029,-0.1517819704,-0.0438765931,-0.0587894393,1.1593825742,0.1174301454,8.9838658641
1520505542942513029,-0.1472489433,-0.0319062024,-0.0668230707,1.1882441993,0.1174278975,9.0161249735
1520505542947528029,-0.1467347216,-0.0199439428,-0.0724143214,1.1858390639,0.1534022976,9.0777069330
1520505542952544029,-0.1439662906,-0.0138099445,-0.0775131426,1.1690031159,0.2145597704,9.1742691157
1520505542957561029,-0.1399442234,-0.0091294629,-0.0837075964,1.1738133868,0.2805121191,9.2334273235
1520505542962576029,-0.1369278847,-0.0067891924,-0.0866714173,1.2219160953,0.3068894620,9.2701220023
1520505542967592029,-0.1384389748,-0.0082423352,-0.0883030078,1.2976778612,0.3320655103,9.3216565055
1520505542972608029,-0.1351752146,-0.0108649729,-0.0877879911,1.2724239392,0.3572494260,9.3381477710
1520505542977624029,-0.1351791781,-0.0152422967,-0.0853864244,1.2700188038,0.3680418772,9.3521063845
1520505542982640029,-0.1336754781,-0.0187405056,-0.0846042640,1.2543854235,0.4040173074,9.3661691975
1520505542987656029,-0.1359462786,-0.0269067143,-0.0822273968,1.2471700173,0.4076152907,9.3952895187
1520505542992672029,-0.1364615039,-0.0365240575,-0.0817587334,1.2567905590,0.4435887541,9.4137551013
1520505542997688029,-0.1369791520,-0.0490603450,-0.0794184796,1.2531828558,0.4759658265,9.4544336827
1520505543002704029,-0.1352292183,-0.0583956155,-0.0751641510,1.2832470487,0.4711669233,9.4936586281
1520505543007721029,-0.1359884897,-0.0651101384,-0.0706146016,1.2820444809,0.4507816298,9.5390138261
1520505543012735029,-0.1357465215,-0.0732746341,-0.0685129475,1.2820444809,0.4759635787,9.5622321491
1520505543017752029,-0.1334954760,-0.0799704931,-0.0704621003,1.2988804289,0.4339923526,9.5946492359
1520505543022768029,-0.1352619617,-0.0863860125,-0.0688844657,1.2940701581,0.4040142167,9.6191303126
1520505543027783029,-0.1352720803,-0.0936698973,-0.0692105888,1.2856521841,0.3920234681,9.5983053502
1520505543032801029,-0.1370389110,-0.0977426855,-0.0719439038,1.2603982621,0.4040168391,9.6531602289
1520505543037815029,-0.1380469643,-0.0991970883,-0.0730353360,1.1858390639,0.4100183482,9.5771785947
1520505543042830029,-0.1355355519,-0.0974346848,-0.0778964908,1.2038775796,0.4088178029,9.5828149080
1520505543047847029,-0.1375444371,-0.0927572945,-0.0838091974,1.1786236576,0.4172137527,9.5795660969
1520505543052864029,-0.1405611600,-0.0909985139,-0.0881189925,1.1569774388,0.4387999662,9.5518642849
1520505543057881029,-0.1400642743,-0.0924428563,-0.0927303216,1.2147006890,0.4651765598,9.5814924596
1520505543062895029,-0.1410717513,-0.0918502830,-0.0965116511,1.2820444809,0.4819592808,9.5540912947
1520505543067912029,-0.1405684088,-0.0924379542,-0.0946232094,1.3181215123,0.4639693646,9.5642169787
1520505543072928029,-0.1410796745,-0.0991414521,-0.0941323152,1.3012855644,0.5251268375,9.5294568946
1520505543077944029,-0.1385706497,-0.1035177913,-0.0917354156,1.3325523249,0.5203278406,9.5117250811
1520505543082960029,-0.1340474943,-0.1049787692,-0.0895905649,1.3433754343,0.5419115253,9.5592465896
1520505543087975029,-0.1277620793,-0.1041079817,-0.0874311966,1.3794524657,0.5646923835,9.5263331898
1520505543092991029,-0.1202226754,-0.1041064849,-0.0869041065,1.4191372002,0.5335116418,9.5434094851
1520505543098007029,-0.1089050347,-0.0979858930,-0.0857962406,1.3938832782,0.5443058724,9.5587526386
1520505543103024029,-0.0998488248,-0.0936232356,-0.0814509621,1.3722370594,0.5443075583,9.5915033603
1520505543108039029,-0.0860161297,-0.0866304194,-0.0792589106,1.3048932675,0.5563042075,9.6525786357
1520505543113054029,-0.0714309770,-0.0758274560,-0.0851557361,1.2519802881,0.5706980136,9.6275124591
1520505543118072029,-0.0563467942,-0.0691102349,-0.0886497052,1.3024881321,0.5419147097,9.6433189263
1520505543123087029,-0.0402568436,-0.0618091225,-0.0924116409,1.2555879913,0.5563080476,9.6565449749
1520505543128103029,-0.0259237424,-0.0533453465,-0.0953497795,1.2483725850,0.5850879797,9.6693707246
1520505543133120029,-0.0095816149,-0.0460470494,-0.0980299984,1.2784367778,0.6090684467,9.6446496883
1520505543138134029,0.0087702446,-0.0387457794,-0.1015255887,1.3060958352,0.6474387860,9.5850737115
1520505543143149029,0.0241070435,-0.0320328304,-0.1033967491,1.2964752935,0.6270541481,9.6374837087
1520505543148166029,0.0369273806,-0.0270655311,-0.1066293103,1.3301471895,0.6186575427,9.6790013348
1520505543153183029,0.0497496505,-0.0218119462,-0.1079658271,1.3770473303,0.5862770985,9.6820628417
1520505543158198029,0.0598092132,-0.0168573847,-0.1068645200,1.3301471895,0.5874798917,9.6581131465
1520505543163213029,0.0676056790,-0.0127771345,-0.1060362275,1.3409702989,0.5622970998,9.6928966757
1520505543168231029,0.0736435744,-0.0107481917,-0.1011620412,1.3193240800,0.5922772963,9.7081860047
1520505543173247029,0.0759109798,-0.0078392877,-0.0989796437,1.2736265070,0.5766920299,9.7295645894
1520505543178262029,0.0806940551,-0.0037675033,-0.0954402916,1.2844496164,0.5311238508,9.7515844139
1520505543183277029,0.0806973090,-0.0020221099,-0.0943447695,1.3157163769,0.5119351689,9.7466502160
1520505543188294029,0.0804574421,0.0037938273,-0.0899711067,1.3373625957,0.4831541129,9.7673861804
1520505543193309029,0.0774513906,0.0061025976,-0.0821018904,1.2808419132,0.4435868809,9.8005149369
1520505543198326029,0.0716809225,0.0092888090,-0.0758441462,1.2772342101,0.3752361577,9.7715631056
1520505543203341029,0.0661591541,0.0092640616,-0.0674469555,1.3109061061,0.3272679183,9.7573364101
1520505543208359029,0.0548571127,0.0074821867,-0.0566174556,1.3986935491,0.2217367239,9.7403148275
1520505543213373029,0.0412963261,0.0065677518,-0.0436127188,1.3746421948,0.1306039249,9.7336649347
1520505543218391029,0.0267261649,0.0027398063,-0.0308988919,1.4179346325,0.0574529873,9.7495848977
1520505543223406029,0.0159299712,0.0012400432,-0.0165510057,1.3746421948,-0.0144920663,9.7361307126
1520505543228422029,-0.0008975669,0.0009092828,-0.0043473930,1.3638190854,-0.0492662957,9.7165135218
1520505543233438029,-0.0137065192,0.0005873819,0.0051432931,1.4083140908,-0.1152224844,9.7242797560
1520505543238453029,-0.0292787903,0.0011392801,0.0143752366,1.3818576011,-0.1835714280,9.7501710866
1520505543243469029,-0.0408295744,0.0028612054,0.0225264213,1.3878704397,-0.2123512664,9.7640863529
1520505543248485029,-0.0493627457,0.0072118719,0.0287981917,1.3505908406,-0.2183440651,9.7993193750
1520505543253501029,-0.0571405621,0.0150703745,0.0310370506,1.3169189446,-0.2075491788,9.8077716002
1520505543258517029,-0.0649140699,0.0249634699,0.0351852924,1.2459674496,-0.2327256018,9.8665939523
1520505543263532029,-0.0679230068,0.0319649867,0.0317271505,1.2014724442,-0.2267264342,9.8565618971
1520505543268550029,-0.0744427413,0.0424529982,0.0315487704,1.1858390639,-0.1991449869,9.8822543351
1520505543273565029,-0.0784589396,0.0485828814,0.0270036426,1.1004567563,-0.1391813159,9.8865133590
1520505543278580029,-0.0832296107,0.0526654931,0.0251498122,1.1052670271,-0.1044066182,9.9247833784
1520505543283598029,-0.0854981569,0.0500530727,0.0210758165,1.1064695949,-0.0528436737,9.9340185434
1520505543288613029,-0.0895229409,0.0474304935,0.0205221846,1.1798262253,0.0035102129,9.9634653188
1520505543293629029,-0.0892752528,0.0436374941,0.0223866390,1.1966621733,0.0922452930,9.9527556213
1520505543298645029,-0.0935504222,0.0377921044,0.0283021213,1.1846364962,0.1078350551,9.9121824321
1520505543303661029,-0.0928094631,0.0272981862,0.0298439654,1.0968490531,0.0706685392,9.8398580816
1520505543308677029,-0.0900570980,0.0188505747,0.0292332702,1.1004567563,0.0095120966,9.7713161094
1520505543313692029,-0.0850364414,0.0162359105,0.0270395608,1.0499489123,-0.0240599015,9.7334897128
1520505543318709029,-0.0792642601,0.0133367131,0.0224073151,1.0631771572,-0.0600351445,9.7159638780
1520505543323725029,-0.0717313562,0.0127743800,0.0158957657,1.0619745895,-0.1211912124,9.7079002117
1520505543328741029,-0.0606811939,0.0110457020,0.0101804276,1.0715951312,-0.1775515616,9.6799700753
1520505543333757029,-0.0463609830,0.0101859015,0.0069006043,1.1317235168,-0.2135304573,9.7073113576
1520505543338772029,-0.0280137888,0.0134048745,0.0044560744,1.1088747303,-0.1811518863,9.6493949838
1520505543343787029,-0.0109193486,0.0195379288,0.0017655631,1.1365337877,-0.2159291128,9.6352139509
1520505543348805029,0.0102028237,0.0306253670,-0.0006240775,1.1485594648,-0.1787566963,9.6536549541
1520505543353820029,0.0325770052,0.0393865918,-0.0046571118,1.1377363554,-0.1787558533,9.6305174205
1520505543358836029,0.0539477046,0.0484344368,-0.0070627807,1.2014724442,-0.1859556598,9.6287419246
1520505543363852029,0.0790935593,0.0606846178,-0.0078277211,1.2086878505,-0.1403888857,9.6983558966
1520505543368868029,0.1049949727,0.0705879924,-0.0026598367,1.1990673088,-0.1619726640,9.6810384258
1520505543373885029,0.1281262458,0.0755338334,0.0035575729,1.2279289339,-0.1260006992,9.6981545836
1520505543378901029,0.1510147940,0.0848416026,0.0130553461,1.2134981213,-0.1164064519,9.7040964094
1520505543383916029,0.1718863104,0.0900728430,0.0211730005,1.1978647410,-0.1415871832,9.7449481696
1520505543388933029,0.1927612140,0.0976344312,0.0295789855,1.1714082514,-0.1631696503,9.7208217059
1520505543393946029,0.2108721324,0.1031450466,0.0417621853,1.1257106783,-0.2303179549,9.7143591173
1520505543398964029,0.2279767146,0.1089517517,0.0520556539,1.0703925635,-0.2698852805,9.7091254184
1520505543403980029,0.2418151608,0.1156327874,0.0618207673,1.0162770164,-0.3130501211,9.8049900464
1520505543408996029,0.2541404470,0.1185259619,0.0712892351,0.9513383599,-0.3538158378,9.7975268693
1520505543414011029,0.2611800172,0.1176399964,0.0766804155,0.9874153913,-0.3813988774,9.7274739751
1520505543419028029,0.2659536756,0.1141328694,0.0812441510,0.9669717402,-0.4209689191,9.7579272921
1520505543424044029,0.2687163279,0.1103342987,0.0855388512,0.9308947088,-0.4365549348,9.7931579638
1520505543429060029,0.2697189671,0.1068307939,0.0882157663,0.9284895733,-0.4557409943,9.7943622273
1520505543434076029,0.2727297113,0.1024575653,0.0895295488,0.8755765940,-0.4149660989,9.7402167264
1520505543439092029,0.2747444967,0.1039072628,0.0925129353,0.8382969949,-0.4065692124,9.7277878143
1520505543444106029,0.2767591959,0.1059426431,0.0944185844,0.8322841563,-0.4197592888,9.7046163232
1520505543449123029,0.2777657085,0.1059386664,0.0960399929,0.8358918594,-0.4125647272,9.7185199195
1520505543454139029,0.2772759502,0.1126279303,0.1006913375,0.8394995626,-0.3969761827,9.7254424666
1520505543459156029,0.2820666781,0.1213574965,0.1058895343,0.8058276666,-0.4293503517,9.7327746441
1520505543464170029,0.2833432722,0.1338773255,0.1097704359,0.7745609061,-0.4461358824,9.7354196342
1520505543469188029,0.2866336441,0.1487282898,0.1139359343,0.7408890101,-0.4281461536,9.7857020257
1520505543474204029,0.2894251154,0.1667864723,0.1173151824,0.6555067025,-0.4557197335,9.8167757223
1520505543479219029,0.2919628297,0.1851454105,0.1171800236,0.6122142648,-0.5108768212,9.8358451972
1520505543484235029,0.2927407035,0.2026280491,0.1175825545,0.6062014263,-0.5276643188,9.8777572756
1520505543489251029,0.2930156228,0.2180627864,0.1209464620,0.5677192594,-0.5516441302,9.8921009517
1520505543494266029,0.2915276671,0.2308751021,0.1240230830,0.5087934415,-0.6247871067,9.8869351093
1520505543499283029,0.2860109247,0.2384438347,0.1259849724,0.4871472227,-0.6847424420,9.8511778047
1520505543504300029,0.2782275648,0.2422229540,0.1281927081,0.4979703321,-0.7243149189,9.8115981530
1520505543509315029,0.2676733629,0.2413395663,0.1300994625,0.4775266810,-0.7806729265,9.8002306583
1520505543514330029,0.2553629663,0.2401531784,0.1360654493,0.4655010038,-0.8382307303,9.7155673285
1520505543519347029,0.2382749870,0.2363402738,0.1428319338,0.4727164101,-0.9569461941,9.6540192332
1520505543524363029,0.2239446105,0.2287455523,0.1476705629,0.4691087070,-1.0001149684,9.6180699820
1520505543529379029,0.2088642971,0.2240643808,0.1525328231,0.4125880245,-1.0432796216,9.5535821544
1520505543534395029,0.1920222064,0.2167571456,0.1584605261,0.4414496496,-1.1092345928,9.5603384105
1520505543539411029,0.1709106780,0.2123664526,0.1627951189,0.3957520765,-1.1643914932,9.5248105296
1520505543544425029,0.1513056254,0.2079807208,0.1655036360,0.4306265402,-1.1979701412,9.5035852333
1520505543549443029,0.1322009710,0.2021389918,0.1679295583,0.4366393787,-1.2243516988,9.4407966600
1520505543554458029,0.1120922229,0.1977567052,0.1692862794,0.4330316756,-1.2351436816,9.4013294048
1520505543559475029,0.0927345134,0.1919207052,0.1695483013,0.4667035716,-1.2651248147,9.4010308967
1520505543564490029,0.0716139289,0.1834622836,0.1695230365,0.4137905922,-1.2351421830,9.3713009429
1520505543569507029,0.0517544567,0.1779160143,0.1703293068,0.4041700505,-1.2327431529,9.3365279260
1520505543574522029,0.0311350663,0.1700478431,0.1676020958,0.4137905922,-1.2315447618,9.2911095020
1520505543579538029,0.0115107174,0.1581159793,0.1591604309,0.4053726182,-1.2171544211,9.2319080637
1520505543584554029,-0.0043430513,0.1461819502,0.1520644947,0.3873341025,-1.1955684886,9.1576853783
1520505543589570029,-0.0219592560,0.1316240427,0.1452223637,0.3897392379,-1.1751832887,9.1378856422
1520505543594586029,-0.0383182138,0.1194057164,0.1354196789,0.4041700505,-1.1284179361,9.0284580456
1520505543599602029,-0.0483981744,0.1054451866,0.1242392580,0.4306265402,-1.0468784478,9.0025538523
1520505543604617029,-0.0549622840,0.0894448866,0.1135778331,0.4534753267,-0.9977154700,8.9046634212
1520505543609635029,-0.0587532620,0.0804410835,0.1021529907,0.4378419465,-0.9281641078,8.8582620071
1520505543614649029,-0.0602859299,0.0720347758,0.0855880219,0.4510701913,-0.8790003807,8.8057888306
1520505543619667029,-0.0552860632,0.0615862372,0.0708891780,0.5665166917,-0.8142557892,8.8046020009
1520505543624683029,-0.0442450433,0.0563755134,0.0597362449,0.6074039940,-0.7818821822,8.7844160096
1520505543629698029,-0.0294301853,0.0543714962,0.0486007649,0.6579118379,-0.7459119033,8.7652950137
1520505543634714029,-0.0118478294,0.0544067969,0.0380168044,0.6951914370,-0.6811612239,8.8287869302
1520505543639730029,0.0160483283,0.0588016052,0.0331285182,0.7649403644,-0.6152139328,8.8385030188
1520505543644745029,0.0416865876,0.0687442167,0.0236873910,0.8034225312,-0.6260091938,8.8427875569
1520505543649761029,0.0736181772,0.0839218277,0.0188738914,0.8419046980,-0.6308087526,8.8668226955
1520505543654777029,0.1090629322,0.0944342941,0.0156415638,0.8996279482,-0.6380080908,8.9046186193
1520505543659793029,0.1467796325,0.1142799642,0.0095001695,0.9669717402,-0.6619961442,8.9772015920
1520505543664808029,0.1837355756,0.1300503261,0.0017057768,0.9717820110,-0.6679922210,9.0038899294
1520505543669826029,0.2222105672,0.1513452015,-0.0014498974,0.9441229536,-0.7147565433,9.1146084256
1520505543674841029,0.2626962591,0.1735179318,-0.0056848197,0.9152613285,-0.7411353848,9.2288051800
1520505543679857029,0.2996611681,0.1924782265,-0.0077732946,0.8960202451,-0.7495278692,9.3335936021
1520505543684874029,0.3333593218,0.2105587171,-0.0082390961,0.8611457814,-0.7938933487,9.4955143239
1520505543689890029,0.3607699474,0.2257265432,-0.0100681897,0.7793711769,-0.7663067501,9.5927413212
1520505543694905029,0.3856604574,0.2356484632,-0.0119326317,0.7036094110,-0.7842879559,9.6853056522
1520505543699921029,0.4040071694,0.2391617344,-0.0154571221,0.6771529213,-0.7866841762,9.8087527613
1520505543704938029,0.4133051398,0.2397510600,-0.0165521283,0.6037962908,-0.7998690076,9.9070997246
1520505543709953029,0.4140582013,0.2394614277,-0.0170968433,0.5785423689,-0.8082610237,9.9317587392
1520505543714968029,0.4087730537,0.2348023067,-0.0190164328,0.5568961500,-0.8106576187,10.0632940357
1520505543719985029,0.3994642669,0.2286876016,-0.0220218537,0.4582855976,-0.8010568152,10.1607024438
1520505543725002029,0.3826114970,0.2179034197,-0.0234255669,0.4655010038,-0.8118496410,10.2199120792
1520505543730017029,0.3622458204,0.2100273341,-0.0231772397,0.4222085662,-0.8106471288,10.3377088313
1520505543735032029,0.3376044138,0.2001127968,-0.0240187234,0.4330316756,-0.7746737590,10.3515141330
1520505543740049029,0.3086903077,0.1884424512,-0.0227012441,0.4282214047,-0.7794699461,10.3782949416
1520505543745064029,0.2775102938,0.1756144225,-0.0246350075,0.3921443734,-0.7123152726,10.3902020498
1520505543750081029,0.2435628251,0.1604542346,-0.0265814215,0.4294239725,-0.7159155973,10.4130855802
1520505543755097029,0.2116268447,0.1452911922,-0.0271788399,0.4751215456,-0.6871397862,10.4393420348
1520505543760113029,0.1761732060,0.1295396318,-0.0261508950,0.4991728998,-0.6103966723,10.4564652553
1520505543765128029,0.1397118198,0.1117472574,-0.0248660988,0.4979703321,-0.5984051744,10.4401952516
1520505543770145029,0.1072702975,0.0957156920,-0.0276336202,0.5508833115,-0.5540410998,10.4617176987
1520505543775160029,0.0723192134,0.0802571698,-0.0271454774,0.6422784577,-0.5072817414,10.4561339344
1520505543780177029,0.0418888737,0.0648091611,-0.0299122863,0.6651272442,-0.5024869593,10.4884468916
1520505543785192029,0.0124697980,0.0528537899,-0.0310310098,0.6819631922,-0.4976917088,10.4778190479
1520505543790209029,-0.0151878100,0.0426474150,-0.0321396618,0.7372813070,-0.4737132087,10.4179878869
1520505543795224029,-0.0413306310,0.0371015981,-0.0324039071,0.7324710361,-0.4701154128,10.4273283507
1520505543800240029,-0.0659755111,0.0254423958,-0.0346114588,0.7553198227,-0.4605240689,10.4189615922
1520505543805256029,-0.0898661850,0.0146605562,-0.0378959250,0.7360787393,-0.5240770128,10.4471023030
1520505543810270029,-0.1122364460,0.0105694965,-0.0368033262,0.7553198227,-0.5492604603,10.4434531464
1520505543815287029,-0.1328453768,0.0061790004,-0.0324696669,0.7336736038,-0.5900295488,10.3762992456
1520505543820303029,-0.1494354159,0.0012109526,-0.0295006507,0.6711400828,-0.6511808401,10.3990482800
1520505543825320029,-0.1692962524,-0.0055015832,-0.0284327270,0.6567092702,-0.6631711204,10.3899032824
1520505543830337029,-0.1884023102,-0.0107532589,-0.0287078174,0.6831657599,-0.6967491128,10.3094905798
1520505543835352029,-0.2044991646,-0.0218365427,-0.0271391490,0.7324710361,-0.7063460762,10.3311007623
1520505543840368029,-0.2218482947,-0.0317635218,-0.0223127039,0.7096222496,-0.7411193689,10.3348435011
1520505543845383029,-0.2389482823,-0.0434394381,-0.0172295181,0.7324710361,-0.7471168506,10.2974383452
1520505543850399029,-0.2570505641,-0.0539545806,-0.0105122977,0.7781686092,-0.7411247076,10.2807176910
1520505543855417029,-0.2728941006,-0.0653371632,-0.0059703142,0.8034225312,-0.7555163595,10.2316758708
1520505543860432029,-0.2882357491,-0.0793514793,0.0020678247,0.8094353698,-0.7651099512,10.1398173279
1520505543865448029,-0.3033231977,-0.0922045293,0.0117376646,0.8936151097,-0.7231465926,10.0564448263
1520505543870464029,-0.3158911892,-0.0998094880,0.0206312151,0.9801999850,-0.6967722468,10.0021177149
1520505543875480029,-0.3279485306,-0.1010016049,0.0287611024,0.9597563339,-0.6092334036,9.9011248150
1520505543880495029,-0.3314580149,-0.0989829593,0.0360879373,1.0078590424,-0.5324921629,9.8889603355
1520505543885512029,-0.3316967762,-0.0902437072,0.0369667342,1.0198847195,-0.4845274826,9.8678779202
1520505543890528029,-0.3279044182,-0.0742197235,0.0384347326,1.0764054020,-0.3478298764,9.8927616449
1520505543895543029,-0.3175664587,-0.0506222813,0.0418422176,1.0860259437,-0.2818779023,9.9263058655
1520505543900560029,-0.3034545202,-0.0203062211,0.0396123689,1.1221029751,-0.1667632315,9.9862739428
1520505543905575029,-0.2868266020,0.0120497870,0.0376639604,1.1978647410,-0.0240714217,10.0609367299
1520505543910591029,-0.2684363812,0.0464447190,0.0362689383,1.2255237984,0.0658619559,10.1977127998
1520505543915607029,-0.2530660079,0.0799745141,0.0310852051,1.1990673088,0.2025660247,10.2780249392
1520505543920623029,-0.2354378145,0.1114691457,0.0245289803,1.1870416316,0.2613248420,10.3373540338
1520505543925640029,-0.2198274919,0.1371338423,0.0184731194,1.1172927043,0.3092958912,10.4297955259
1520505543930655029,-0.2069879682,0.1578431904,0.0126551458,1.1678005482,0.3668506978,10.4385449368
1520505543935671029,-0.1966756483,0.1663053911,0.0097244748,1.1882441993,0.3404680163,10.4651009873
1520505543940687029,-0.1931568021,0.1677680627,0.0081057807,1.1665979805,0.3368722809,10.3711815260
1520505543945702029,-0.1936677581,0.1619416321,0.0075211607,1.1365337877,0.3092943927,10.3087452737
1520505543950720029,-0.1987133093,0.1488331867,0.0052660891,1.0944439177,0.2469423688,10.3138643322
1520505543955735029,-0.2080374133,0.1290124823,0.0062143717,1.0463412092,0.1630062855,10.2458478949
1520505543960750029,-0.2203816822,0.1045226165,0.0092970527,1.0271001258,0.1018516225,10.1496368639
1520505543965767029,-0.2349936662,0.0762467795,0.0112728505,1.0102641778,0.0047225594,10.0638967985
1520505543970783029,-0.2503627537,0.0473958908,0.0102695975,1.0018462038,-0.0624286487,9.9745591324
1520505543975797029,-0.2669907110,0.0167962027,0.0092553396,0.9453255213,-0.1283769699,9.8891749311
1520505543980815029,-0.2836091653,-0.0068102568,0.0082944357,0.9741871464,-0.1931328006,9.8436335399
1520505543985830029,-0.2989692749,-0.0280807772,0.0057257076,1.0150744487,-0.2446990233,9.7456657574
1520505543990847029,-0.3135728928,-0.0476034235,0.0034394636,1.0295052612,-0.2746786578,9.7025552039
1520505543995862029,-0.3246543675,-0.0642108462,0.0011689164,1.0667848603,-0.2650884379,9.6742915375
1520505544000879029,-0.3332206113,-0.0796539314,-0.0002857680,1.0920387823,-0.2950689153,9.6357242143
1520505544005895029,-0.3407780963,-0.0924741622,-0.0017223115,1.1509646002,-0.3094631897,9.6037868119
1520505544010910029,-0.3455704119,-0.1038327451,-0.0045056031,1.2159032567,-0.3250570729,9.5659813337
1520505544015926029,-0.3445779266,-0.1114003362,-0.0075412750,1.2820444809,-0.2746983264,9.4932355182
1520505544020942029,-0.3435822265,-0.1154662140,-0.0124440912,1.3289446217,-0.2315329239,9.4857640611
1520505544025958029,-0.3375550103,-0.1169142178,-0.0149013211,1.3782498980,-0.1835711470,9.4736159406
1520505544030975029,-0.3265018567,-0.1166039326,-0.0203305517,1.4516065285,-0.1248189795,9.4263588764
1520505544035991029,-0.3131798001,-0.1116335226,-0.0246462300,1.5586350549,-0.0696668558,9.4578033675
1520505544041006029,-0.2980882312,-0.1014284284,-0.0248669713,1.6355993886,-0.0133132501,9.5244036343
1520505544046021029,-0.2797294286,-0.0921013069,-0.0232066280,1.7041457482,0.0322487474,9.5771506331
1520505544051038029,-0.2583519665,-0.0827832019,-0.0177642428,1.8304153581,0.0885985130,9.6362981288
1520505544056054029,-0.2377262957,-0.0743504723,-0.0082689383,1.9085822594,0.1269649186,9.6610670483
1520505544061069029,-0.2155856693,-0.0638920290,0.0066500454,1.9133925302,0.1389559482,9.7423586115
1520505544066086029,-0.1926919462,-0.0569430163,0.0264107781,1.9170002334,0.1929169863,9.8503502638
1520505544071101029,-0.1718161331,-0.0540676189,0.0437092082,1.8857334728,0.2204996512,9.8843298751
1520505544076117029,-0.1516983094,-0.0546913163,0.0617939992,1.9085822594,0.2276927142,9.9584776761
1520505544081134029,-0.1358514759,-0.0582472868,0.0860870493,1.8773154989,0.2576736599,10.0412649948
1520505544086149029,-0.1177520562,-0.0670407367,0.1079009702,1.8604795509,0.2984457456,10.0901991541
1520505544091165029,-0.1031684953,-0.0767213735,0.1340434903,1.8785180666,0.2852537960,10.0365778191
1520505544096180029,-0.0868257524,-0.0855235254,0.1588366832,1.9085822594,0.2972428587,10.0769485377
1520505544101198029,-0.0765187134,-0.0978253829,0.1838849463,1.9121899625,0.2996408586,10.1338561376
1520505544106213029,-0.0641971516,-0.1083839731,0.2111071812,1.9133925302,0.3188270117,10.1466093066
1520505544111229029,-0.0543828113,-0.1134014144,0.2362119549,1.9266207751,0.3464062112,10.1359943606
1520505544116245029,-0.0433153248,-0.1225050311,0.2639887307,1.9061771240,0.3416112417,10.1338737360
1520505544121262029,-0.0350067544,-0.1263589819,0.2896462888,1.9302284782,0.3320162451,10.1057575347
1520505544126276029,-0.0294556928,-0.1240898416,0.3134618444,1.8977591500,0.3332179144,10.0572623558
1520505544131293029,-0.0183750807,-0.1180166962,0.3321556602,1.8592769832,0.3056406818,10.0669609641
1520505544136310029,-0.0098040266,-0.1099070290,0.3516813425,1.8484538737,0.2996458226,9.9903706553
1520505544141326029,-0.0022330124,-0.0950827997,0.3663901966,1.8099717069,0.2864582750,9.9396237459
1520505544146340029,0.0038377321,-0.0747228551,0.3811440896,1.7955408944,0.2396929225,9.9026212042
1520505544151357029,0.0091449986,-0.0578437948,0.3899206960,1.7726921078,0.1953265063,9.8726711230
1520505544156374029,0.0132017497,-0.0383507787,0.4016956487,1.7233868316,0.1629535550,9.8220482685
1520505544161387029,0.0162532622,-0.0185653151,0.4129335995,1.7089560190,0.1185864832,9.7687733729
1520505544166405029,0.0170358797,-0.0005130192,0.4182104026,1.6933226388,0.1233842625,9.7979744601
1520505544171420029,0.0210836647,0.0157900641,0.4242794376,1.6464224980,0.0886128429,9.7984648681
1520505544176437029,0.0251219977,0.0277340345,0.4259863919,1.6355993886,0.0634317370,9.8148647851
1520505544181453029,0.0238835374,0.0393816390,0.4287831079,1.6031300603,0.0946119168,9.8093396991
1520505544186468029,0.0233874516,0.0443357075,0.4285512879,1.5682555966,0.0898180713,9.8364131340
1520505544191485029,0.0243951560,0.0466693628,0.4277555680,1.5874966800,0.0946131344,9.9129226767
1520505544196500029,0.0228794006,0.0411339229,0.4271750379,1.5935095186,0.1102014916,9.9267946775
1520505544201516029,0.0213615322,0.0335566060,0.4273905839,1.5911043832,0.1401801895,9.9686260365
1520505544206532029,0.0178288313,0.0233589545,0.4265076724,1.6271814146,0.1449739414,10.0077831019
1520505544211548029,0.0135362945,0.0087902397,0.4255928147,1.6127506020,0.1341828015,9.9951505031
1520505544216565029,0.0120109929,-0.0034455875,0.4244200619,1.6067377634,0.1593652187,9.9661308734
1520505544221581029,0.0069639010,-0.0180124124,0.4226949667,1.6788918262,0.1461690544,9.9224421064
1520505544226596029,0.0009152637,-0.0305428531,0.4220694836,1.6957277742,0.1281806369,9.9095121922
1520505544231612029,-0.0033755129,-0.0436539169,0.4208951955,1.7257919670,0.0730178359,9.9081112115
1520505544236628029,-0.0076609263,-0.0544411887,0.4224441510,1.7113611545,0.0526335726,9.9094336949
1520505544241644029,-0.0134589235,-0.0669693457,0.4210065635,1.7233868316,0.0322472488,9.8756343484
1520505544246659029,-0.0197615883,-0.0818324180,0.4209048542,1.7161714253,0.0130615640,9.8338861058
1520505544251676029,-0.0278249287,-0.0978617176,0.4207975196,1.7378176442,-0.0061263687,9.8336941242
1520505544256693029,-0.0363935483,-0.1150531100,0.4193294967,1.7390202119,0.0370425929,9.7859924208
1520505544261707029,-0.0464704902,-0.1331214321,0.4186692426,1.7750972433,-0.0085275530,9.7473349535
1520505544266724029,-0.0560414472,-0.1488592094,0.4182963856,1.7486407536,0.0118598947,9.7417618662
1520505544271740029,-0.0678769948,-0.1657590404,0.4162955613,1.7185765607,-0.0193154148,9.6502755231
1520505544276755029,-0.0754369848,-0.1794490541,0.4132290732,1.7498433213,-0.0636860456,9.5977179792
1520505544281771029,-0.0849976860,-0.1858545138,0.4099513500,1.7257919670,-0.1020566659,9.5956652113
1520505544286788029,-0.0968185320,-0.1893390017,0.4037240534,1.7113611545,-0.1332331930,9.5795660595
1520505544291804029,-0.1066292500,-0.1925291320,0.3966836084,1.6368019563,-0.1799938626,9.4966630125
1520505544296819029,-0.1144260137,-0.1930960140,0.3896594373,1.6307891177,-0.2279590113,9.4863090157
1520505544301836029,-0.1214687045,-0.1933704876,0.3823655433,1.6127506020,-0.2555378361,9.4841871985
1520505544306852029,-0.1297649334,-0.1883866919,0.3699736264,1.6139531697,-0.2483430872,9.4411691511
1520505544311867029,-0.1345419242,-0.1831123185,0.3583890362,1.6019274926,-0.2927103463,9.3646279662
1520505544316883029,-0.1408298756,-0.1801696121,0.3467894616,1.5646478935,-0.2831143194,9.3603328924
1520505544321899029,-0.1440987205,-0.1743104221,0.3346654254,1.5778761383,-0.2855136305,9.3346393085
1520505544326915029,-0.1433397902,-0.1637896896,0.3233811286,1.6247762791,-0.2639327557,9.2539738304
1520505544331932029,-0.1403179393,-0.1526867589,0.3126381694,1.6307891177,-0.2867168920,9.2725318258
1520505544336947029,-0.1382914358,-0.1369337244,0.3062613807,1.6945252065,-0.2951158389,9.2521631960
1520505544341964029,-0.1342552433,-0.1208848756,0.2985303518,1.7318048056,-0.3298938147,9.3018064401
1520505544346979029,-0.1284580263,-0.1045490521,0.2926921003,1.7101585868,-0.3598706394,9.2729927657
1520505544351996029,-0.1244212693,-0.0908436629,0.2895425669,1.7245893993,-0.3538760612,9.2600628748
1520505544357010029,-0.1186249775,-0.0756755628,0.2845070607,1.6993354773,-0.3478783922,9.3172478881
1520505544362026029,-0.1120808620,-0.0654628896,0.2802439996,1.6957277742,-0.3526746729,9.3254226883
1520505544367044029,-0.1075481133,-0.0590528431,0.2810961441,1.6560430397,-0.2855197184,9.3350406238
1520505544372059029,-0.1025178164,-0.0526258457,0.2757247996,1.5838889769,-0.2531373074,9.3357113550
1520505544377075029,-0.0977393515,-0.0485387643,0.2735826879,1.6019274926,-0.2075713762,9.3517613596
1520505544382091029,-0.0914556027,-0.0467843535,0.2722316288,1.6368019563,-0.1919852669,9.3676767270
1520505544387107029,-0.0836611167,-0.0441610260,0.2730488059,1.6079403312,-0.1248311553,9.4352965147
1520505544392122029,-0.0756139245,-0.0406641748,0.2741427313,1.5838889769,-0.1032447545,9.4436445754
1520505544397138029,-0.0715891796,-0.0362852757,0.2717336970,1.5526222164,-0.0612724045,9.5357173523
1520505544402154029,-0.0647905153,-0.0257905891,0.2709894888,1.5610401903,-0.0552773580,9.5716560328
1520505544407170029,-0.0554762202,-0.0123767021,0.2686395689,1.5478119455,0.0262652210,9.5891374327
1520505544412185029,-0.0501794094,0.0024881616,0.2679315074,1.4888861276,0.0598457422,9.7117033541
1520505544417202029,-0.0406042653,0.0240660128,0.2637495459,1.4263526065,0.0610497530,9.7820394850
1520505544422219029,-0.0320318507,0.0482695731,0.2582367296,1.3842627365,0.0658495928,9.8405516823
1520505544427235029,-0.0244636120,0.0759817373,0.2481531769,1.3481857052,0.1018266153,9.8931642318
1520505544432251029,-0.0184040485,0.1022327459,0.2394140387,1.3554011114,0.0970294916,9.9651516040
1520505544437266029,-0.0131037876,0.1264525086,0.2274141883,1.3938832782,0.0754419669,10.0775260538
1520505544442283029,-0.0080558841,0.1489194951,0.2170247414,1.3974909814,0.0646494221,10.1205007890
1520505544447298029,-0.0070301693,0.1705114812,0.2063655470,1.3806550334,0.0130876951,10.2346050489
1520505544452315029,-0.0080112814,0.1947251404,0.1957300942,1.4540116639,0.0106837010,10.3570806383
1520505544457330029,-0.0097490696,0.2139718555,0.1899280751,1.4648347733,-0.0420793206,10.4372146765
1520505544462346029,-0.0170275305,0.2244755972,0.1837990856,1.4624296379,-0.0516722566,10.4744360479
1520505544467362029,-0.0268196383,0.2349805396,0.1768631256,1.4888861276,-0.0744579852,10.5927394374
1520505544472378029,-0.0376231004,0.2411150487,0.1696251403,1.4948989661,-0.0264928366,10.6158770177
1520505544477394029,-0.0532031377,0.2437416033,0.1658864423,1.4359731482,-0.0228908259,10.7001214221
1520505544482409029,-0.0700473219,0.2417098837,0.1604912333,1.3457805697,-0.0168880993,10.7532899326
1520505544487426029,-0.0871390216,0.2422997980,0.1553870446,1.3000829966,0.0118948299,10.7525445166
1520505544492441029,-0.1062425586,0.2437718193,0.1470467082,1.1329260845,0.0442846401,10.7715721066
1520505544497458029,-0.1218344630,0.2420472736,0.1359699248,1.0054539070,0.0790696403,10.7483739087
1520505544502474029,-0.1414440202,0.2444085487,0.1219557273,0.9332998442,0.0934649450,10.7281435889
1520505544507490029,-0.1572850985,0.2491162170,0.1028119417,0.8238661823,0.1018674510,10.7733620339
1520505544512505029,-0.1731219114,0.2561513195,0.0850386701,0.7312684684,0.1282557521,10.7335625594
1520505544517522029,-0.1894679161,0.2602811208,0.0639975505,0.6939888693,0.1150681109,10.7106953998
1520505544522538029,-0.2038040163,0.2632425296,0.0442965342,0.6903811662,0.1102718302,10.7211944879
1520505544527554029,-0.2183979663,0.2630058945,0.0218660717,0.6687349473,0.1174683587,10.7829917925
1520505544532569029,-0.2297328214,0.2560643245,0.0010016862,0.6939888693,0.1102715493,10.7804287144
1520505544537585029,-0.2400620853,0.2494145329,-0.0198623431,0.7024068433,0.1042751915,10.7989469290
1520505544542601029,-0.2536564345,0.2424647925,-0.0380170691,0.7517121195,0.0886825260,10.7984822231
1520505544547616029,-0.2652381545,0.2352157141,-0.0529312013,0.7950045572,0.1066662605,10.7968811570
1520505544552633029,-0.2750661928,0.2244728958,-0.0686869152,0.8274738854,0.1270491189,10.8116531131
1520505544557649029,-0.2813672110,0.2177999128,-0.0803598516,0.7962071249,0.1042678860,10.7608453280
1520505544562665029,-0.2879273100,0.2073475737,-0.0953077721,0.7565223904,0.1054701172,10.7391496904
1520505544567681029,-0.2974978043,0.2003892106,-0.1096823232,0.7312684684,0.0802901352,10.6743399913
1520505544572697029,-0.2992746516,0.1943007689,-0.1213592144,0.6867734630,0.1018781283,10.6154826886
1520505544577713029,-0.3008015212,0.1867533177,-0.1322360501,0.6903811662,0.1258606557,10.5085069429
1520505544582730029,-0.3005684993,0.1827162817,-0.1479593020,0.6579118379,0.1150709207,10.4146998432
1520505544587745029,-0.2932956877,0.1777925519,-0.1580208276,0.6723426505,0.0958835501,10.4110916600
1520505544592767029,-0.2845166277,0.1699475548,-0.1651313795,0.7300659007,0.1246584245,10.4360689202
1520505544597777029,-0.2671897616,0.1626792047,-0.1687362572,0.7048119787,0.1234612510,10.4456130473
1520505544602792029,-0.2460909981,0.1554043186,-0.1693721309,0.7072171142,0.1198636424,10.4560524408
1520505544607808029,-0.2217223115,0.1513403129,-0.1716128934,0.6110116971,0.1186719948,10.4569900147
1520505544612823029,-0.1933332004,0.1452301780,-0.1709006802,0.5304396603,0.1318688146,10.4124377765
1520505544617841029,-0.1624405491,0.1362253932,-0.1769790125,0.4306265402,0.1414697118,10.3971299261
1520505544622857029,-0.1327979704,0.1312965857,-0.1819417045,0.3608776128,0.1102974931,10.3780827750
1520505544627873029,-0.1044200207,0.1220038024,-0.1896408680,0.2634696281,0.1306904667,10.3394981114
1520505544632888029,-0.0785649975,0.1071817412,-0.2003536078,0.2622670604,0.1186991561,10.2407392737
1520505544637904029,-0.0501972095,0.0908979146,-0.2089177631,0.2983440917,0.1270903293,10.1648405796
1520505544642920029,-0.0276116311,0.0711071963,-0.2145218559,0.2983440917,0.1174972059,10.1055805927
1520505544647936029,-0.0090558627,0.0411004189,-0.2142442794,0.3139774720,0.0983097416,10.0008541805
1520505544652953029,0.0054829546,0.0148844355,-0.2155536106,0.3332185554,0.1138970685,9.9193016214
1520505544657968029,0.0210246738,-0.0151286224,-0.2133766122,0.4125880245,0.1354754146,9.8104286518
1520505544662983029,0.0282752449,-0.0448579154,-0.2095587134,0.4907549258,0.0911011310,9.7213881482
1520505544668000029,0.0382970892,-0.0728531154,-0.2000511463,0.5340473635,0.0539244061,9.5873564609
1520505544673016029,0.0433004802,-0.0953139784,-0.1904920061,0.5725295303,-0.0156287355,9.4929160605
1520505544678033029,0.0473048820,-0.1122345586,-0.1825120357,0.5665166917,-0.0695895863,9.4302714325
1520505544683048029,0.0533357755,-0.1177925399,-0.1736374611,0.5256293895,-0.1115563167,9.4132781720
1520505544688065029,0.0603772392,-0.1166358999,-0.1693129027,0.4462599204,-0.2278667562,9.3514083581
1520505544693079029,0.0681797738,-0.1090634060,-0.1668346578,0.3741058577,-0.3165975279,9.2906035630
1520505544698096029,0.0790001486,-0.0959359422,-0.1708128765,0.3452442326,-0.3873445651,9.3699792643
1520505544703111029,0.0895698009,-0.0807616009,-0.1774805259,0.2466336801,-0.4700775742,9.4023976501
1520505544708128029,0.1011499332,-0.0597504340,-0.1873521312,0.2045438101,-0.5000528067,9.3726208177
1520505544713143029,0.1165006026,-0.0384485911,-0.1964168765,0.1564411016,-0.5276292900,9.3626566192
1520505544718159029,0.1298431709,-0.0148135458,-0.2065422870,0.1420102891,-0.5156367618,9.3511639469
1520505544723175029,0.1429354086,0.0096962830,-0.2169311074,0.1167563671,-0.4820588631,9.3908899061
1520505544728192029,0.1557786371,0.0365400032,-0.2283838599,0.0301714918,-0.4568701707,9.3626545151
1520505544733208029,0.1688615482,0.0543487163,-0.2390943572,-0.0624262221,-0.4628586610,9.4286417126
1520505544738223029,0.1794291737,0.0668954979,-0.2438881930,-0.0636287899,-0.4556637248,9.4728078719
1520505544743238029,0.1864715744,0.0736102968,-0.2476377728,-0.0455902742,-0.4532668489,9.5156292837
1520505544748255029,0.1937496943,0.0669127648,-0.2482435306,-0.1682521809,-0.5324005635,9.5436296868
1520505544753272029,0.1954875845,0.0529342810,-0.2510589647,-0.2680653011,-0.5995446534,9.5620988488
1520505544758287029,0.1961999128,0.0252661580,-0.2561413841,-0.2656601656,-0.6331207726,9.5911617790
1520505544763302029,0.1953867632,-0.0149299051,-0.2621282335,-0.2211651602,-0.6882846975,9.6639975506
1520505544768320029,0.1907911036,-0.0664994543,-0.2652187775,-0.1959112383,-0.6906849452,9.5975118777
1520505544773335029,0.1824218255,-0.1212764386,-0.2680562288,-0.1646444777,-0.6774968357,9.5297903342
1520505544778351029,0.1748088158,-0.1757682989,-0.2684579440,-0.0960981181,-0.6283374170,9.4663194295
1520505544783368029,0.1661936412,-0.2299779096,-0.2656090186,-0.0455902742,-0.5491980827,9.3332662300
1520505544788383029,0.1590956254,-0.2792421338,-0.2594785502,0.0590331169,-0.5168294397,9.2055426269
1520505544793398029,0.1547633002,-0.3290953284,-0.2506522030,0.1853027267,-0.4424925678,9.0682702543
1520505544798415029,0.1517044015,-0.3687597703,-0.2379627390,0.1985309716,-0.4137142279,8.9530611831
1520505544803430029,0.1501644257,-0.4005576960,-0.2246749601,0.1889104299,-0.3981246531,8.9136267277
1520505544808447029,0.1498894358,-0.4259439415,-0.2116111529,0.1396051536,-0.3729388641,8.8327320021
1520505544813462029,0.1501329211,-0.4414309288,-0.1954966894,0.1420102891,-0.3753373323,8.7606580055
1520505544818479029,0.1508906204,-0.4478826136,-0.1801258814,0.0650459554,-0.3693356359,8.7416448352
1520505544823495029,0.1524119426,-0.4458780243,-0.1668563712,0.0337791949,-0.3297615668,8.7198298433
1520505544828511029,0.1521807202,-0.4421396572,-0.1484298835,0.0157406792,-0.3345567236,8.7118750888
1520505544833527029,0.1534655196,-0.4316959416,-0.1310372487,-0.0455902742,-0.3441450703,8.6683199312
1520505544838542029,0.1540075487,-0.4148500744,-0.1106183010,-0.0973006858,-0.2949762856,8.6687753057
1520505544843558029,0.1527913681,-0.3965443316,-0.0915377003,-0.1057186598,-0.3213567193,8.6805044061
1520505544848575029,0.1540909005,-0.3773685498,-0.0705612763,-0.1033135244,-0.3669242427,8.6991197341
1520505544853591029,0.1526272905,-0.3570268559,-0.0501119178,-0.1141366338,-0.3753173827,8.7340975837
1520505544858607029,0.1514109805,-0.3378425890,-0.0326479232,-0.1033135244,-0.4100932980,8.7107832699
1520505544863621029,0.1549676821,-0.3177728282,-0.0187032238,-0.1285674464,-0.4820397565,8.7180721002
1520505544868638029,0.1565143891,-0.2974124705,-0.0047525674,-0.1454033943,-0.5419954664,8.7299158775
1520505544873655029,0.1628409213,-0.2732622434,0.0092181213,-0.0840724410,-0.5983598430,8.6979959918
1520505544878670029,0.1633842010,-0.2485176714,0.0180636187,-0.0479954096,-0.6307394442,8.6616499496
1520505544883686029,0.1669468970,-0.2199795486,0.0253091403,0.0397920335,-0.7062921281,8.6422748456
1520505544888702029,0.1732723394,-0.1928987222,0.0330795042,0.1023255545,-0.7242841047,8.6381972909
1520505544893717029,0.1773391267,-0.1640726601,0.0416790448,0.1816950236,-0.7134980225,8.6571706804
1520505544898734029,0.1796447169,-0.1343622071,0.0462303334,0.2213797581,-0.7482761855,8.6440347409
1520505544903750029,0.1842132237,-0.1055330344,0.0537467570,0.3031543626,-0.7686679416,8.6409343879
1520505544908766029,0.1867689601,-0.0799164349,0.0636773735,0.3632827482,-0.7722700459,8.6333797793
1520505544913781029,0.1847987263,-0.0545857079,0.0709087090,0.4426522173,-0.7422977169,8.5826058221
1520505544918798029,0.1843341252,-0.0324669042,0.0808182492,0.4943626290,-0.7435008847,8.5855901059
1520505544923814029,0.1831128560,-0.0123880877,0.0907136279,0.4871472227,-0.7423011823,8.5996048943
1520505544928830029,0.1808829140,0.0044821916,0.1016686032,0.5388576343,-0.7123266991,8.6176666467
1520505544933845029,0.1771432423,0.0196021161,0.1131541322,0.5989860200,-0.6955434161,8.6321728945
1520505544938861029,0.1759122465,0.0312249539,0.1251494086,0.5953783168,-0.6463783778,8.6182143393
1520505544943877029,0.1754323363,0.0425647153,0.1341650569,0.6001885877,-0.6415821907,8.6379192890
1520505544948893029,0.1729433565,0.0553627971,0.1423839168,0.5857577751,-0.6151999775,8.6914926461
1520505544953910029,0.1722085877,0.0655434778,0.1489562265,0.5977834523,-0.5744301397,8.7471187478
1520505544958926029,0.1712216459,0.0771904523,0.1520230216,0.5785423689,-0.5492466923,8.8286315494
1520505544963941029,0.1687286242,0.0891238501,0.1567181156,0.6098091294,-0.4761015616,8.8724173585
1520505544968958029,0.1679937260,0.1001830550,0.1616738191,0.6531015671,-0.4245418951,8.8370813762
1520505544973973029,0.1677721165,0.1191098390,0.1666886125,0.6567092702,-0.3969619464,8.9090722914
1520505544978989029,0.1672949388,0.1342456121,0.1727571561,0.6975965724,-0.3346098288,8.9132620897
1520505544984006029,0.1683276240,0.1517166942,0.1774879546,0.7300659007,-0.2998372854,8.9198850060
1520505544989022029,0.1676048634,0.1697603866,0.1857435629,0.7144325204,-0.2710566976,8.9641705779
1520505544994036029,0.1653665670,0.1822679107,0.1936891871,0.7865865832,-0.2602700534,9.0041327888
1520505544999054029,0.1636343418,0.1965202966,0.2029999458,0.8238661823,-0.2135064803,9.0653179574
1520505545004069029,0.1631562271,0.2060979107,0.2171426276,0.8238661823,-0.2326927271,9.0967145536
1520505545009085029,0.1589026042,0.2118889628,0.2301812266,0.7950045572,-0.2159025134,9.0981412482
1520505545014100029,0.1591692867,0.2176919852,0.2394237821,0.7204453590,-0.2015070214,9.1534736955
1520505545019117029,0.1601870469,0.2202849741,0.2505343047,0.7036094110,-0.2158953952,9.1943266367
1520505545024133029,0.1596952578,0.2228831997,0.2594832604,0.6362656191,-0.2650549076,9.1566793123
1520505545029149029,0.1597000015,0.2234528570,0.2643575327,0.5689218272,-0.2302745904,9.2049487867
1520505545034164029,0.1597042159,0.2231461754,0.2700367735,0.5677192594,-0.2386684797,9.2340222760
1520505545039181029,0.1614607986,0.2208136031,0.2708273594,0.5111985769,-0.2398632181,9.2450328786
1520505545044196029,0.1627147798,0.2170173553,0.2740426764,0.4727164101,-0.2470550635,9.2767923432
1520505545049213029,0.1622080030,0.2141040416,0.2737508331,0.4510701913,-0.2434559563,9.2944316855
1520505545054229029,0.1657184006,0.2088626837,0.2728926458,0.4751215456,-0.2458561104,9.2895513473
1520505545059243029,0.1692320993,0.2065373565,0.2712450516,0.4330316756,-0.2494502536,9.3050724037
1520505545064259029,0.1735005334,0.2059657308,0.2677155745,0.4318291079,-0.2170733685,9.3224846959
1520505545069277029,0.1775167474,0.2056897617,0.2625655118,0.4582855976,-0.2302659736,9.3257264792
1520505545074293029,0.1827885303,0.2042465616,0.2582158609,0.4655010038,-0.1571189698,9.3650978136
1520505545079308029,0.1865508463,0.2007594368,0.2552061781,0.4679061393,-0.1211449444,9.4893887264
1520505545084324029,0.1900595778,0.1964017022,0.2508375634,0.4667035716,-0.1091534465,9.5498202237
1520505545089341029,0.1923019161,0.1847588621,0.2464157051,0.5388576343,-0.1235487512,9.6130498699
1520505545094355029,0.1920296313,0.1693153837,0.2462983483,0.6158219680,-0.0995719369,9.6517902539
1520505545099373029,0.1887445675,0.1526906171,0.2515886178,0.6687349473,-0.0971777771,9.6954343630
1520505545104388029,0.1867112934,0.1337403656,0.2549649477,0.6603169733,-0.1151642279,9.7373710209
1520505545109403029,0.1809085760,0.1130323173,0.2613109448,0.6194296711,-0.1475378349,9.7610434440
1520505545114419029,0.1725879503,0.0914615142,0.2630556596,0.5977834523,-0.1763155191,9.8112543892
1520505545119437029,0.1655283860,0.0701687478,0.2699406359,0.5941757491,-0.1571289914,9.8647294169
1520505545124452029,0.1539348929,0.0445187383,0.2711192031,0.5605038532,-0.1643212115,9.8546048789
1520505545129467029,0.1420955072,0.0208995808,0.2755603495,0.5641115563,-0.1703171945,9.8731699137
1520505545134483029,0.1292488170,-0.0032983689,0.2783756411,0.5761372334,-0.1787121141,9.8858446320
1520505545139499029,0.1121303565,-0.0266209251,0.2801233528,0.5544910146,-0.1871044112,9.8442263260
1520505545144514029,0.0985307853,-0.0487736511,0.2807912390,0.5905680460,-0.1823106593,9.8403840651
1520505545149532029,0.0836743670,-0.0715110952,0.2819981045,0.6434810254,-0.1607302527,9.8363615627
1520505545154548029,0.0718362594,-0.0933783034,0.2850998599,0.6783554890,-0.2206899900,9.8546748863
1520505545159564029,0.0562283636,-0.1146605771,0.2868603327,0.7625352289,-0.2254931079,9.8387523383
1520505545164579029,0.0433869503,-0.1359490522,0.2913211306,0.8046250989,-0.2111067009,9.8301936215
1520505545169596029,0.0287931295,-0.1534553166,0.2977079170,0.8443098334,-0.2099106513,9.9192912698
1520505545174612029,0.0182201762,-0.1715456885,0.3051649731,0.8563355106,-0.1955219028,9.9482137860
1520505545179628029,0.0066405771,-0.1902170380,0.3118078123,0.9188690316,-0.2099164582,10.0638335506
1520505545184643029,-0.0051884274,-0.2068458805,0.3173844963,0.9308947088,-0.2147139565,10.1288012388
1520505545189659029,-0.0177718536,-0.2228878787,0.3213437512,0.9320972765,-0.1919303821,10.1496859075
1520505545194674029,-0.0295950088,-0.2360237491,0.3282998417,0.9814025527,-0.1727479754,10.2142673522
1520505545199692029,-0.0426707416,-0.2459534250,0.3347416279,1.0186821518,-0.1451706491,10.2452554874
1520505545204707029,-0.0547352965,-0.2518047806,0.3417537622,1.0379232352,-0.1175919179,10.2241227205
1520505545209722029,-0.0688065883,-0.2541566674,0.3474435778,1.0776079697,-0.0900147790,10.2713574610
1520505545214738029,-0.0828700941,-0.2512658180,0.3539850467,1.0812156729,-0.0936124812,10.2794608615
1520505545219755029,-0.0956754787,-0.2475017796,0.3610719429,1.0258975581,-0.0828159091,10.2718537624
1520505545224771029,-0.1092318510,-0.2396499120,0.3649448119,1.0295052612,-0.0864136113,10.3090107617
1520505545229787029,-0.1232931495,-0.2323759113,0.3669203468,1.0090616101,-0.0720223340,10.3022228519
1520505545234804029,-0.1378577515,-0.2262705594,0.3699701064,1.0006436361,-0.0840130826,10.2802357456
1520505545239819029,-0.1541863614,-0.2195641884,0.3659933859,0.9801999850,-0.0972020351,10.2711504426
1520505545244834029,-0.1654874148,-0.2131537888,0.3644400209,1.0042513393,-0.1391738231,10.2535251091
1520505545249851029,-0.1760301690,-0.2023672268,0.3610247808,1.0114667455,-0.1715511765,10.2186221322
1520505545254868029,-0.1855676809,-0.1904096338,0.3557227449,1.0222898549,-0.1595606152,10.2324508208
1520505545259883029,-0.1923388828,-0.1772868767,0.3509655591,1.0246949904,-0.1607599429,10.2208071405
1520505545264898029,-0.1965995113,-0.1641551222,0.3432277013,1.0427335061,-0.1919389988,10.1613926258
1520505545269914029,-0.2006061124,-0.1486907361,0.3349660696,1.0114667455,-0.1775468786,10.1965472438
1520505545274930029,-0.2015948419,-0.1323546572,0.3280582360,1.0415309384,-0.2075277307,10.2346346014
1520505545279947029,-0.2010790756,-0.1174705396,0.3195132112,1.0198847195,-0.1715518321,10.2905931220
1520505545284962029,-0.2038258384,-0.0993824722,0.3109987078,1.0222898549,-0.1295821046,10.2940152169
1520505545289978029,-0.2043130249,-0.0833353956,0.3032760800,1.0066564747,-0.1175894828,10.3162364244
1520505545294993029,-0.2020373395,-0.0710876182,0.3001186983,0.9814025527,-0.0840115841,10.3106387693
1520505545300010029,-0.2010257539,-0.0623274777,0.2934198765,0.9970359330,-0.0492377294,10.3151012685
1520505545305026029,-0.2040358787,-0.0562001145,0.2899550654,1.0102641778,-0.0312516533,10.3626028749
1520505545310043029,-0.2045297260,-0.0515461717,0.2929675730,1.0066564747,-0.0324505127,10.4137734934
1520505545315058029,-0.2015088200,-0.0489283570,0.2951463473,1.0114667455,-0.0108663597,10.4241649207
1520505545320074029,-0.2010037212,-0.0495218556,0.2991991561,1.0283026935,0.0370979460,10.4495214433
1520505545325090029,-0.2017576686,-0.0521562666,0.3035092828,1.0331129644,0.0694743627,10.4936045212
1520505545330106029,-0.2015023749,-0.0524621213,0.3089175110,1.0511514801,0.0610789749,10.5561929042
1520505545335122029,-0.2012447055,-0.0510196688,0.3143390776,1.1028618917,0.0203041731,10.5510807685
1520505545340137029,-0.2009851895,-0.0487052481,0.3205789511,1.1930544702,0.0430808167,10.6164228773
1520505545345152029,-0.2032325891,-0.0414360896,0.3260496467,1.3000829966,0.0670552894,10.5990877251
1520505545350169029,-0.2029561016,-0.0306897283,0.3391176371,1.4131243617,0.0682456258,10.6886335089
1520505545355186029,-0.2041865721,-0.0196540301,0.3527317428,1.4467962576,0.1234034628,10.7475213194
1520505545360202029,-0.2071731902,-0.0077506950,0.3685201519,1.4443911222,0.1893563734,10.7962904619
1520505545365217029,-0.2101512343,0.0085146669,0.3875884581,1.3842627365,0.2888897115,10.9129930550
1520505545370234029,-0.2168959029,0.0262325609,0.4077570641,1.3217292155,0.4184017476,10.9402047402
1520505545375249029,-0.2226375716,0.0439581330,0.4252183443,1.2507777204,0.5503127201,10.9988739089
1520505545380264029,-0.2291401387,0.0540964855,0.4466814129,1.1678005482,0.6822246292,11.0902001589
1520505545385282029,-0.2399155857,0.0607234383,0.4729955648,1.1221029751,0.8201293370,11.1207262199
1520505545390298029,-0.2449181575,0.0612292098,0.5008755728,1.0764054020,0.9304538150,11.1698734789
1520505545395313029,-0.2506785894,0.0573573622,0.5311585476,1.0078590424,0.9568402429,11.2146764119
1520505545400330029,-0.2556909348,0.0482365179,0.5630233822,0.9068433545,0.9436575657,11.3516433420
1520505545405345029,-0.2589521940,0.0338743550,0.5937627505,0.7685480675,0.9064949835,11.4122950147
1520505545410361029,-0.2609627612,0.0171903493,0.6212354498,0.6350630514,0.8537432011,11.4671043488
1520505545415376029,-0.2594616056,-0.0018124277,0.6446256419,0.4967677644,0.7985935125,11.5277735615
1520505545420393029,-0.2564669821,-0.0248648602,0.6571600746,0.4522727590,0.6870769186,11.5666661477
1520505545425409029,-0.2562414366,-0.0496586701,0.6667102978,0.4390445142,0.5887484341,11.6273222747
1520505545430425029,-0.2552670910,-0.0756060678,0.6719214943,0.4017649151,0.4928201037,11.5917522160
1520505545435440029,-0.2535457450,-0.1024083845,0.6700904280,0.4354368110,0.4244664771,11.5275732093
1520505545440457029,-0.2525696705,-0.1222148543,0.6672319323,0.5160088478,0.3836894275,11.4966129852
1520505545445472029,-0.2498266359,-0.1388270599,0.6687233579,0.5689218272,0.3489102342,11.4089710770
1520505545450489029,-0.2475961373,-0.1609677557,0.6671974734,0.6206322388,0.3309191004,11.2760008889
1520505545455504029,-0.2458616853,-0.1799107029,0.6684024353,0.6518989994,0.2649639420,11.2048700899
1520505545460521029,-0.2421140278,-0.1971060122,0.6701580937,0.7481044164,0.2121942705,11.0854464530
1520505545465536029,-0.2381087361,-0.2096390706,0.6719488547,0.7974096926,0.1966016050,10.9524973363
1520505545470552029,-0.2323350299,-0.2169338027,0.6764818232,0.8022199635,0.1462373326,10.8339609450
1520505545475569029,-0.2240391420,-0.2181113888,0.6821389928,0.7841814478,0.1042688226,10.7760702500
1520505545480585029,-0.2132143411,-0.2082182921,0.6889581560,0.7144325204,0.0671009018,10.6547602776
1520505545485600029,-0.1998730274,-0.1939454301,0.6928299934,0.6891785985,0.0431200602,10.6120301443
1520505545490617029,-0.1840129115,-0.1729588130,0.6926901060,0.5941757491,0.0023566849,10.5176987970
1520505545495631029,-0.1643816351,-0.1484639067,0.6887822524,0.5364524989,-0.0216216279,10.4206639343
1520505545500648029,-0.1444961981,-0.1210514146,0.6835434333,0.4907549258,-0.0635879836,10.3177188414
1520505545505664029,-0.1238525952,-0.0898477144,0.6772499306,0.4210059985,-0.0947602023,10.2324294849
1520505545510679029,-0.0984404735,-0.0630121831,0.6706436680,0.3921443734,-0.1175416225,10.1908954414
1520505545515696029,-0.0725289218,-0.0385075312,0.6640186873,0.3019517949,-0.1535088107,10.1011611723
1520505545520712029,-0.0451186373,-0.0195334954,0.6554548464,0.2839132792,-0.1822867760,10.0583654860
1520505545525728029,-0.0167071641,-0.0046435483,0.6487518366,0.2322028675,-0.2362440677,9.9857063546
1520505545530744029,0.0114460202,0.0070498118,0.6387782888,0.1744796173,-0.2710146443,9.8677634248
1520505545535760029,0.0368317928,0.0161181712,0.6293309591,0.1732770496,-0.3621492228,9.8225403854
1520505545540776029,0.0627151018,0.0208130459,0.6209315332,0.1023255545,-0.3981179096,9.7674831542
1520505545545791029,0.0870863093,0.0234727373,0.6106255247,0.1347948828,-0.4448869149,9.7149162439
1520505545550808029,0.1089445677,0.0243751241,0.6032868499,0.1131486640,-0.5276259182,9.6373439744
1520505545555823029,0.1300477927,0.0270371777,0.5916341794,0.0734639294,-0.5623978997,9.6331155763
1520505545560839029,0.1488882265,0.0282385087,0.5810567775,0.0878947420,-0.5827844109,9.5772120846
1520505545565855029,0.1599366796,0.0276862952,0.5712921433,0.1047306900,-0.6427427433,9.5027294677
1520505545570871029,0.1704828878,0.0277181108,0.5609917968,0.0854896066,-0.6835120191,9.4262550051
1520505545575887029,0.1777600982,0.0257067694,0.5514935939,0.0830844711,-0.7110920615,9.3798195519
1520505545580904029,0.1807657969,0.0228137732,0.5441610232,0.1311871796,-0.7422734589,9.3177881229
1520505545585920029,0.1790015694,0.0234155207,0.5368639972,0.1071358254,-0.7590595517,9.2517963894
1520505545590936029,0.1729650422,0.0240163229,0.5293043597,0.0758690649,-0.7926330484,9.1998369844
1520505545595950029,0.1611465759,0.0237436208,0.5206666039,0.0650459554,-0.8082210309,9.1255803182
1520505545600967029,0.1495705719,0.0194025602,0.5079390698,0.0518177106,-0.8226096857,9.0978316510
1520505545605983029,0.1317149551,0.0165130471,0.4963165028,0.0349817626,-0.8753705531,9.0364533432
1520505545610998029,0.1070713257,0.0127525496,0.4825355009,0.0385894657,-0.8957562213,8.9295208630
1520505545616016029,0.0839371163,0.0098653395,0.4692994597,-0.0528056804,-0.9425155797,8.8874567252
1520505545621031029,0.0565318813,0.0072656549,0.4568852135,-0.1057186598,-0.9509054416,8.8217377277
1520505545626047029,0.0268610914,0.0040925132,0.4406830792,-0.2115446185,-0.9425032165,8.7658145335
1520505545631063029,-0.0078431945,-0.0031554251,0.4220242430,-0.2019240768,-0.9233177191,8.6855142508
1520505545636079029,-0.0422946839,-0.0086520440,0.4022960951,-0.2572421916,-0.8849409171,8.6476645140
1520505545641094029,-0.0765022214,-0.0193927576,0.3822569190,-0.2295831342,-0.8465705778,8.5450892109
1520505545646110029,-0.1112261210,-0.0379908523,0.3583710105,-0.2524319208,-0.8273825515,8.5278607382
1520505545651127029,-0.1492093469,-0.0542737193,0.3399198720,-0.2812935459,-0.7974017930,8.4607080768
1520505545656143029,-0.1836756673,-0.0723071572,0.3228015904,-0.2608498948,-0.7842128406,8.4105240380
1520505545661158029,-0.2201539543,-0.0885799639,0.3008305549,-0.2175574571,-0.7866144932,8.3938349793
1520505545666175029,-0.2571364659,-0.1057256642,0.2783126918,-0.2355959728,-0.7710242628,8.3126452770
1520505545671191029,-0.2868234393,-0.1182114558,0.2577106844,-0.2367985405,-0.7638293266,8.2894070869
1520505545676207029,-0.3187746935,-0.1309822338,0.2344051955,-0.1850881289,-0.7674307752,8.2761236940
1520505545681223029,-0.3489722230,-0.1475395930,0.2107969935,-0.1478085298,-0.7794250829,8.2862318262
1520505545686238029,-0.3766447089,-0.1550623189,0.1869824940,-0.0828698733,-0.7998155278,8.2925924957
1520505545691255029,-0.4007882731,-0.1535456471,0.1613365547,-0.0660339253,-0.8309944900,8.3226747705
1520505545696270029,-0.4211547964,-0.1497109908,0.1411123172,0.0482100075,-0.8861638472,8.3192922919
1520505545701287029,-0.4387494231,-0.1409246283,0.1220029218,0.0830844711,-0.9101493718,8.2992197848
1520505545706302029,-0.4538320729,-0.1327193218,0.1026138671,0.0554254137,-0.9293334644,8.3738849236
1520505545711317029,-0.4673951882,-0.1178203216,0.0865196937,-0.0095132428,-0.9149387217,8.4128537150
1520505545716334029,-0.4776955037,-0.1034918841,0.0663568184,-0.0167286490,-0.9353235469,8.4489702867
1520505545721350029,-0.4849804136,-0.0909178567,0.0488804628,-0.0552108159,-0.9269265668,8.4993088532
1520505545726365029,-0.4879869551,-0.0748506401,0.0333166712,-0.0696416284,-0.9113366174,8.5296498553
1520505545731382029,-0.4879775146,-0.0584908576,0.0177495020,-0.1309725818,-0.9005395769,8.5372091528
1520505545736397029,-0.4854553917,-0.0415436793,0.0008293823,-0.1766701549,-0.8993368774,8.5376527756
1520505545741413029,-0.4814261383,-0.0260572035,-0.0144813778,-0.2127471863,-0.8561650124,8.6448790749
1520505545746429029,-0.4756435130,-0.0149415348,-0.0295582054,-0.2043292123,-0.8117974724,8.6552131695
1520505545751445029,-0.4681045638,-0.0044013902,-0.0470776592,-0.2079369154,-0.8117971914,8.6587347166
1520505545756462029,-0.4575531531,0.0035160184,-0.0640816298,-0.2235702957,-0.7926097270,8.6611924608
1520505545761477029,-0.4457469223,0.0093905853,-0.0797507660,-0.2055317800,-0.8477715914,8.7424207513
1520505545766493029,-0.4311796584,0.0135208419,-0.0965205583,-0.1983163737,-0.8561661363,8.7435208503
1520505545771509029,-0.4166154328,0.0144414980,-0.1116915292,-0.1718598840,-0.8489733543,8.7920663691
1520505545776524029,-0.3967790361,0.0112833815,-0.1263623326,-0.1009083890,-0.8849530929,8.8623016322
1520505545781540029,-0.3789478865,0.0104489976,-0.1385767046,-0.0600210867,-0.9137356475,8.9316603617
1520505545786558029,-0.3598628773,0.0096238472,-0.1540399609,-0.0576159513,-0.9784894177,8.9944558694
1520505545791573029,-0.3415353282,0.0061759407,-0.1695218247,0.0073227052,-1.0216635306,9.1193774396
1520505545796588029,-0.3204431000,0.0015570232,-0.1825828019,0.0915024451,-1.0864236697,9.1744041398
1520505545801604029,-0.2985868566,0.0042222859,-0.1953190561,0.1311871796,-1.1104095689,9.2507427607
1520505545806622029,-0.2774888693,0.0022185448,-0.2056545665,0.2153669196,-1.1391954953,9.3371122674
1520505545811636029,-0.2551365049,-0.0032900594,-0.2127725368,0.1660616433,-1.1559796211,9.4189586223
1520505545816653029,-0.2332814182,-0.0061822273,-0.2177051987,0.1251743411,-1.1271970665,9.5704072441
1520505545821668029,-0.2134379922,-0.0079001751,-0.2261423311,0.1215666379,-1.0564475006,9.6668313165
1520505545826685029,-0.1953588958,-0.0142846067,-0.2332590364,0.0734639294,-0.9904910309,9.7811253126
1520505545831701029,-0.1747716998,-0.0262131009,-0.2371760967,0.0409946012,-0.8837650044,9.9266052722
1520505545836716029,-0.1556952019,-0.0407668319,-0.2402987268,-0.0215389199,-0.7974220236,10.0584520095
1520505545841733029,-0.1393859862,-0.0588240877,-0.2412785328,-0.0383748679,-0.6631169849,10.1328621274
1520505545846751029,-0.1195655810,-0.0815399323,-0.2431120800,-0.0948955504,-0.5599865065,10.2634718247
1520505545851765029,-0.1027604168,-0.1065996894,-0.2406290768,-0.1381879881,-0.4880347093,10.4323339198
1520505545856781029,-0.0904788040,-0.1304898532,-0.2402931475,-0.1959112383,-0.4268740521,10.4769975965
1520505545861796029,-0.0744239255,-0.1517568078,-0.2396736653,-0.2728755719,-0.3896947047,10.5788169946
1520505545866813029,-0.0611317503,-0.1718593074,-0.2390401568,-0.3342065253,-0.3633088387,10.6537654400
1520505545871829029,-0.0465854528,-0.1922461433,-0.2408461181,-0.3654732858,-0.3956831950,10.7656671633
1520505545876844029,-0.0325311953,-0.2053507482,-0.2417839311,-0.3919297755,-0.4052742579,10.8170683632
1520505545881860029,-0.0197223920,-0.2114677158,-0.2407722352,-0.3907272078,-0.4856167599,10.8415400269
1520505545886876029,-0.0051602129,-0.2204920120,-0.2419504044,-0.3209782804,-0.5347869495,10.8862326908
1520505545891892029,0.0036289107,-0.2251507185,-0.2420023091,-0.2656601656,-0.5659689089,10.8752653654
1520505545896907029,0.0126709562,-0.2304001083,-0.2390831218,-0.1911009674,-0.5671738562,10.9233508673
1520505545901924029,0.0207067949,-0.2362319326,-0.2364370597,-0.0816673055,-0.5683815197,10.9838805061
1520505545906941029,0.0252368503,-0.2353742176,-0.2296751441,0.0421971689,-0.5923739752,10.9606175370
1520505545911955029,0.0287613183,-0.2333448024,-0.2253373823,0.1071358254,-0.5779893477,11.0250514933
1520505545916972029,0.0302827425,-0.2260719818,-0.2206853252,0.1672642110,-0.5648034861,11.0604798403
1520505545921988029,0.0280418979,-0.2141413993,-0.2149085144,0.2297977321,-0.6139731137,11.0355140972
1520505545927004029,0.0242936562,-0.2019200231,-0.2091266802,0.2791030083,-0.6583451495,11.0153210083
1520505545932020029,0.0182863204,-0.1879519542,-0.2030567610,0.2622670604,-0.6967163318,10.9701986837
1520505545937036029,0.0107685532,-0.1754392134,-0.1978067946,0.2261900290,-0.7626662453,11.0310456347
1520505545942051029,0.0025009432,-0.1576716484,-0.1963030551,0.2442285447,-0.7602693693,10.9785712422
1520505545947067029,-0.0067766998,-0.1428154088,-0.1959018631,0.1684667787,-0.7626617496,10.9467709687
1520505545952084029,-0.0173140871,-0.1282415764,-0.1990176572,0.1167563671,-0.7614585818,10.9147330861
1520505545957099029,-0.0278582448,-0.1168649610,-0.2051339101,0.0830844711,-0.7458671338,10.8441548450
1520505545962114029,-0.0391599059,-0.1078182604,-0.2118076393,0.0397920335,-0.7734439918,10.7225780067
1520505545967131029,-0.0509641646,-0.0987717567,-0.2184804350,0.0542228460,-0.8154150305,10.6841277224
1520505545972147029,-0.0605148177,-0.0914537348,-0.2322049631,0.0229560855,-0.8741704761,10.6054635626
1520505545977164029,-0.0690585191,-0.0841411466,-0.2437669909,0.0385894657,-0.9964840169,10.5554584794
1520505545982179029,-0.0735879903,-0.0800249286,-0.2580663992,-0.0528056804,-1.1151918006,10.5587881162
1520505545987196029,-0.0783684467,-0.0735682632,-0.2758646527,-0.0804647378,-1.2614847781,10.4941199305
1520505545992211029,-0.0839062730,-0.0688565582,-0.2950275740,-0.0564133836,-1.4281671702,10.3627261007
1520505545997226029,-0.0854259094,-0.0644273781,-0.3169056450,-0.1177443369,-1.5768558060,10.2821179798
1520505546002243029,-0.0859428596,-0.0623310657,-0.3379917298,-0.0948955504,-1.7231527172,10.1797695752
1520505546007259029,-0.0844495956,-0.0605260786,-0.3588132256,-0.0696416284,-1.8610558328,10.0983081662
1520505546012274029,-0.0837123764,-0.0575434654,-0.3842237092,-0.0648313576,-1.9749745476,10.0216709322
1520505546017291029,-0.0837344248,-0.0598118966,-0.4075084409,-0.0780596024,-2.0613116278,9.9161287804
1520505546022307029,-0.0845025405,-0.0571307283,-0.4294012505,-0.0732493316,-2.1536458151,9.7987954600
1520505546027322029,-0.0865329525,-0.0567723873,-0.4545560620,-0.1069212275,-2.2016088095,9.7584949367
1520505546032339029,-0.0883109642,-0.0549541115,-0.4807824083,-0.1321751495,-2.2255896512,9.6541711738
1520505546037354029,-0.0918475422,-0.0537236645,-0.5053866584,-0.1562265037,-2.1824187227,9.5706888140
1520505546042371029,-0.0981422485,-0.0481242611,-0.5296818823,-0.1646444777,-2.1884137692,9.5521822928
1520505546047386029,-0.1051835945,-0.0381587557,-0.5523190844,-0.1814804257,-2.1656287899,9.4686495815
1520505546052402029,-0.1149858012,-0.0276203055,-0.5717001556,-0.1911009674,-2.1200607046,9.4628880673
1520505546057419029,-0.1200103468,-0.0179679784,-0.5859563918,-0.2007215091,-2.0349209852,9.4710336923
1520505546062432029,-0.1257812773,-0.0071700761,-0.5928975963,-0.2283805665,-1.9581738439,9.4665794951
1520505546067451029,-0.1287822048,0.0065369270,-0.5976573367,-0.2596473271,-1.8118762771,9.4458225760
1520505546072467029,-0.1337945423,0.0167341447,-0.5978407402,-0.2945217907,-1.6943577995,9.4565067230
1520505546077481029,-0.1337800289,0.0254669394,-0.5945274969,-0.3438270670,-1.6284012361,9.4429765892
1520505546082499029,-0.1302421923,0.0350621542,-0.5863442923,-0.3714861244,-1.5612472183,9.4571260499
1520505546087515029,-0.1249456207,0.0426103538,-0.5752039116,-0.3991451818,-1.4401318813,9.4270614201
1520505546092530029,-0.1173834509,0.0504391692,-0.5597367739,-0.4460453226,-1.3657815223,9.3797975162
1520505546097546029,-0.1073057878,0.0591387520,-0.5426443588,-0.4352222132,-1.3322064334,9.3459572545
1520505546102561029,-0.0911964705,0.0675463996,-0.5244831846,-0.4328170777,-1.3034272506,9.3296357649
1520505546107578029,-0.0753342768,0.0774035870,-0.5036049693,-0.3714861244,-1.2446741465,9.2813336073
1520505546112593029,-0.0577060483,0.0892873152,-0.4775740874,-0.3354090930,-1.1979104798,9.3030175865
1520505546117610029,-0.0370579214,0.1046702960,-0.4520632210,-0.2993320616,-1.1943158683,9.2782579037
1520505546122625029,-0.0149057808,0.1188956137,-0.4292695062,-0.2343934051,-1.1463553090,9.2589847538
1520505546127641029,0.0105172395,0.1328162582,-0.4010731640,-0.1417956912,-1.0780115167,9.2185039177
1520505546132658029,0.0379526694,0.1464382930,-0.3699067738,-0.0804647378,-1.0564317657,9.2446152227
1520505546137674029,0.0674014772,0.1606366003,-0.3360342122,-0.0383748679,-1.0360496566,9.2627799702
1520505546142690029,0.0963487460,0.1765873884,-0.3037706541,0.0265637886,-1.0396521355,9.2179899349
1520505546147705029,0.1252916552,0.1878694681,-0.2691077523,0.0758690649,-1.0156731671,9.2337566562
1520505546152721029,0.1547373777,0.1976875379,-0.2317514404,0.0842870388,-0.9832970313,9.2464267321
1520505546157737029,0.1821685383,0.2075186602,-0.1995317667,0.0698562263,-1.0012830137,9.1431539209
1520505546162752029,0.2103455859,0.2106445915,-0.1660118947,0.0782742003,-0.9964871077,9.1023922698
1520505546167769029,0.2354954824,0.2073683514,-0.1360524265,0.1155537994,-0.9689097814,9.0299495931
1520505546172786029,0.2581373186,0.2078798541,-0.1063299369,0.1372000182,-0.9365346758,8.9808972838
1520505546177801029,0.2764955055,0.2005252145,-0.0777417198,0.2057463779,-0.9557262612,8.9128444557
1520505546182818029,0.2898175110,0.1864704037,-0.0505480288,0.2730901698,-0.9869091572,8.8308692986
1520505546187834029,0.3023876900,0.1747500161,-0.0246878823,0.2839132792,-0.9677237533,8.7563680306
1520505546192848029,0.3119369199,0.1607046550,-0.0015453789,0.2839132792,-0.9869100001,8.7273331411
1520505546197865029,0.3189684140,0.1446251735,0.0191513172,0.3284082846,-1.0156928357,8.6258215942
1520505546202881029,0.3212215451,0.1297268419,0.0333726718,0.3187877429,-1.0360774736,8.5655036278
1520505546207897029,0.3187055459,0.1203695015,0.0452102197,0.3031543626,-1.0576607837,8.5494068262
1520505546212912029,0.3139272025,0.1124769388,0.0538165328,0.3344211231,-1.0804468869,8.5003146662
1520505546217928029,0.3093972176,0.1051796270,0.0578275451,0.3248005814,-1.0960349631,8.4260462949
1520505546222945029,0.3028568461,0.0993450060,0.0594184936,0.3067620657,-1.1080249624,8.3843963818
1520505546227961029,0.2915429455,0.0961389879,0.0580623128,0.2706850343,-1.1463946462,8.3534070656
1520505546232977029,0.2787202875,0.0935209755,0.0545490112,0.2995466595,-1.2051547748,8.2915898123
1520505546237993029,0.2638850866,0.0906166184,0.0488728532,0.2803055761,-1.2315343655,8.2871542429
1520505546243008029,0.2487992063,0.0894662974,0.0410461333,0.3055594980,-1.2159475069,8.2752717957
1520505546248024029,0.2314541887,0.0903555105,0.0329686296,0.3885366702,-1.2363393566,8.2256739795
1520505546253040029,0.2153580558,0.0862945926,0.0237688162,0.4799318164,-1.2171602280,8.1747934958
1520505546258056029,0.1997662337,0.0825208856,0.0161935679,0.5424653375,-1.2675289961,8.1382074825
1520505546263071029,0.1846790322,0.0799114567,0.0091673702,0.5929731814,-1.3298882318,8.1296416681
1520505546268088029,0.1698426434,0.0761329461,0.0034845430,0.6458861608,-1.3742605485,8.1233591914
1520505546273104029,0.1562626154,0.0717699733,-0.0013934264,0.6759503536,-1.4330207708,8.1370695901
1520505546278120029,0.1421803387,0.0665275511,-0.0043833103,0.6987991402,-1.4833864481,8.1752470567
1520505546283135029,0.1291065975,0.0624452333,-0.0052018016,0.7156350881,-1.5577344656,8.1786421168
1520505546288152029,0.1162839787,0.0580709010,-0.0057524367,0.7144325204,-1.5925094442,8.2472542260
1520505546293167029,0.1049639231,0.0519583219,-0.0098363074,0.7132299527,-1.5937084910,8.2716721235
1520505546298184029,0.0936529746,0.0525475869,-0.0138690471,0.6555067025,-1.6008988378,8.2989702931
1520505546303201029,0.0815942846,0.0560431175,-0.0151726969,0.5833526397,-1.5901009544,8.3810121493
1520505546308215029,0.0705386416,0.0607169634,-0.0210686014,0.5580987177,-1.5900989876,8.3963658269
1520505546313230029,0.0632565269,0.0677204486,-0.0258715385,0.5400602021,-1.5649156338,8.4743804915
1520505546318248029,0.0549751132,0.0793871493,-0.0311781311,0.5400602021,-1.5469285274,8.5452537326
1520505546323264029,0.0479498015,0.0922264362,-0.0389130781,0.4955651967,-1.5253405344,8.6514208715
1520505546328280029,0.0381620925,0.1056437671,-0.0452857155,0.4859446550,-1.5001578362,8.7549207677
1520505546333296029,0.0286264702,0.1181804869,-0.0492305758,0.4775266810,-1.4857674955,8.7817179820
1520505546338311029,0.0173281964,0.1295575353,-0.0556159744,0.4871472227,-1.5097510533,8.8932135479
1520505546343326029,0.0087916105,0.1377246095,-0.0598665938,0.5280345249,-1.5253430632,9.0288016201
1520505546348343029,-0.0020104913,0.1435619066,-0.0649424350,0.5737320980,-1.5361388861,9.0736909662
1520505546353359029,-0.0133170450,0.1456000815,-0.0659880544,0.6194296711,-1.5565278324,9.1522918417
1520505546358375029,-0.0211067834,0.1450098898,-0.0643547568,0.6675323796,-1.5553324383,9.1971460843
1520505546363390029,-0.0286483044,0.1415030375,-0.0616619731,0.6975965724,-1.5877115713,9.2910186903
1520505546368407029,-0.0349370752,0.1336186252,-0.0562994105,0.7456992810,-1.5277582965,9.4043821286
1520505546373424029,-0.0442419613,0.1248566926,-0.0501262786,0.7853840155,-1.5205665447,9.5120682335
1520505546378439029,-0.0548033454,0.1146307893,-0.0415270156,0.7865865832,-1.4606096172,9.6375096085
1520505546383456029,-0.0656233282,0.1003312315,-0.0351227762,0.7336736038,-1.4354235473,9.7588630461
1520505546388471029,-0.0739261514,0.0860188181,-0.0235828319,0.6927863016,-1.3982470097,9.8707905881
1520505546393486029,-0.0812283583,0.0670388186,-0.0099159568,0.6482912962,-1.3442822253,10.0199254811
1520505546398503029,-0.0925540242,0.0483588264,-0.0000270336,0.6013911554,-1.2375550748,10.1271951509
1520505546403519029,-0.0993582477,0.0279308424,0.0103812419,0.5749346657,-1.1572106060,10.2273186965
1520505546408534029,-0.1066640105,0.0092553392,0.0191805140,0.5352499312,-1.0756659664,10.3264076844
1520505546413550029,-0.1157209536,-0.0065201196,0.0328751101,0.4907549258,-0.9509518969,10.4487442754
1520505546418566029,-0.1235127777,-0.0152989438,0.0455385431,0.4907549258,-0.8945922970,10.5788494393
1520505546423582029,-0.1290336758,-0.0182535620,0.0598655126,0.5099960092,-0.8142513872,10.6552853136
1520505546428599029,-0.1343008092,-0.0185819788,0.0728592937,0.4655010038,-0.7518926198,10.7311969521
1520505546433615029,-0.1395619169,-0.0151253104,0.0869641585,0.3993597796,-0.6871338856,10.8015062231
1520505546438630029,-0.1438198483,-0.0113688510,0.0980933747,0.4594881653,-0.6283806879,10.9205645000
1520505546443645029,-0.1495882934,-0.0070185583,0.1049011030,0.4955651967,-0.6295826381,10.9771595714
1520505546448662029,-0.1561158687,-0.0058708771,0.1106035939,0.5508833115,-0.6559680358,10.9301611061
1520505546453678029,-0.1659142884,-0.0076383211,0.1162899214,0.5713269626,-0.7195240704,10.9218890874
1520505546458695029,-0.1729530784,-0.0105600221,0.1181745801,0.6446835931,-0.7938764899,10.9073018506
1520505546463709029,-0.1837701052,-0.0196008182,0.1194784630,0.7132299527,-0.8646311135,10.8311642963
1520505546468725029,-0.1940965033,-0.0382607490,0.1220607802,0.7649403644,-0.8994102132,10.8260463139
1520505546473741029,-0.2069376500,-0.0583793153,0.1249071951,0.8503226720,-0.9377893566,10.7334433014
1520505546478758029,-0.2202823196,-0.0796658020,0.1285572887,0.8924125419,-0.9977496559,10.6563905904
1520505546483774029,-0.2311203324,-0.1041499780,0.1297433481,0.9308947088,-0.9989517934,10.6385850386
1520505546488790029,-0.2422043671,-0.1257247778,0.1325753805,0.9573511984,-0.9653779221,10.6150519068
1520505546493805029,-0.2515248289,-0.1464356613,0.1394690035,1.0222898549,-0.9701795414,10.5888573441
1520505546498822029,-0.2613423881,-0.1627745170,0.1458558144,1.0619745895,-0.9629877896,10.6000855008
1520505546503838029,-0.2686397024,-0.1747459907,0.1538945798,1.0932413500,-0.9450031185,10.6276550841
1520505546508853029,-0.2731686405,-0.1846810604,0.1635670481,1.1690031159,-0.9797840913,10.6978423576
1520505546513869029,-0.2756816014,-0.1908288004,0.1738057746,1.2231186630,-0.9653986209,10.7368144924
1520505546518886029,-0.2729063332,-0.1894006604,0.1849041378,1.2399546110,-0.9582050896,10.8179936824
1520505546523901029,-0.2688701330,-0.1868159597,0.1995261564,1.2507777204,-0.9725956177,10.9457382039
1520505546528918029,-0.2605613627,-0.1815969264,0.2103726059,1.2327392047,-0.9845856170,11.0865448916
1520505546533934029,-0.2452107679,-0.1717100702,0.2201593729,1.1714082514,-0.9414117851,11.2556106267
1520505546538949029,-0.2273404064,-0.1556980553,0.2280943363,1.1040644594,-0.8538692892,11.3479901204
1520505546543964029,-0.2024296671,-0.1341353228,0.2317297356,1.0138718810,-0.8046975074,11.5382495213
1520505546548981029,-0.1740009598,-0.1111070050,0.2326642573,0.9044382191,-0.7339396993,11.7089187077
1520505546553996029,-0.1413067665,-0.0909821175,0.2303220631,0.8382969949,-0.6595878418,11.7641107526
1520505546559013029,-0.1073639434,-0.0725868341,0.2212005494,0.7432941455,-0.5888311577,11.8230736588
1520505546564028029,-0.0759366137,-0.0550623183,0.2104537583,0.6783554890,-0.5372630618,11.8108718668
1520505546569046029,-0.0437639654,-0.0433630124,0.1988494676,0.5905680460,-0.5048794332,11.8151811956
1520505546574061029,-0.0141068968,-0.0319487912,0.1845421621,0.6037962908,-0.5156727273,11.6930378488
1520505546579077029,0.0105199690,-0.0246202931,0.1718363432,0.5977834523,-0.5372567866,11.5594708675
1520505546584093029,0.0318724699,-0.0231222224,0.1596332218,0.5580987177,-0.5744270489,11.4564625719
1520505546589109029,0.0481984650,-0.0225024596,0.1482444034,0.5749346657,-0.5996103091,11.3633517409
1520505546594124029,0.0597536948,-0.0201413593,0.1387716124,0.5665166917,-0.6403804278,11.2007732803
1520505546599140029,0.0682882814,-0.0206916437,0.1279294618,0.5713269626,-0.6751558748,11.0798973996
1520505546604157029,0.0722950904,-0.0241560886,0.1165323896,0.5737320980,-0.7255199599,10.9997351689
1520505546609172029,0.0755529229,-0.0267590586,0.1097426670,0.5677192594,-0.7471040192,10.8708167634
1520505546614188029,0.0750461579,-0.0252819368,0.1021794308,0.5400602021,-0.7399070225,10.7746210155
1520505546619205029,0.0710198371,-0.0278994170,0.0997319776,0.5508833115,-0.7327130229,10.7233743199
1520505546624220029,0.0667439778,-0.0290593445,0.0970255606,0.5484781760,-0.7171240100,10.6280867244
1520505546629237029,0.0632212661,-0.0310945872,0.0948521659,0.5677192594,-0.6907444193,10.5813879599
1520505546634253029,0.0649880066,-0.0278995946,0.0989315412,0.5232242541,-0.6571650220,10.5724911538
1520505546639268029,0.0622333480,-0.0232494517,0.1030304330,0.4474624882,-0.6055960832,10.5127468052
1520505546644284029,0.0577088243,-0.0244182189,0.1035710335,0.4426522173,-0.5312490023,10.5045861187
1520505546649300029,0.0544484905,-0.0212215533,0.1063070138,0.4149931599,-0.4616967036,10.4757339144
1520505546654317029,0.0599902138,-0.0136528592,0.1098716427,0.3584724774,-0.4089301230,10.5355019428
1520505546659332029,0.0615060083,-0.0098737392,0.1134148391,0.2706850343,-0.3345765795,10.4805010031
1520505546664347029,0.0597666637,0.0020606824,0.1178379870,0.2682798989,-0.2434417200,10.4711383918
1520505546669365029,0.0655689654,0.0151599535,0.1236087550,0.2394182738,-0.1511056596,10.4132220763
1520505546674379029,0.0640785006,0.0256390077,0.1274792290,0.2370131384,-0.1163304000,10.4190222954
1520505546679396029,0.0666090367,0.0361189088,0.1316127813,0.2370131384,-0.0539750980,10.3318006932
1520505546684411029,0.0656152733,0.0419345506,0.1359878442,0.1744796173,-0.0179960149,10.3079692529
1520505546689428029,0.0653767707,0.0489167544,0.1400998534,0.1804924559,-0.0036067982,10.2009794517
1520505546694443029,0.0656388428,0.0547350738,0.1436609451,0.1504282631,0.0023912455,10.1501318975
1520505546699459029,0.0616323514,0.0620035430,0.1491349077,0.0878947420,-0.0047987268,10.0589382041
1520505546704476029,0.0571175033,0.0666566390,0.1518843370,0.1095409608,-0.0095969743,9.9831928334
1520505546709492029,0.0518443600,0.0683970511,0.1540718439,0.1095409608,-0.0491686083,9.9297727997
1520505546714507029,0.0463189926,0.0689696414,0.1570625628,0.1347948828,-0.1247164219,9.8389534334
1520505546719523029,0.0430553579,0.0692502764,0.1605879500,0.1432128568,-0.1690852731,9.7935911494
1520505546724539029,0.0380311337,0.0677790013,0.1651854492,0.1203640702,-0.2062568467,9.7299318775
