#timestamp [ns],w_RS_S_x [rad s^-1],w_RS_S_y [rad s^-1],w_RS_S_z [rad s^-1],a_RS_S_x [m s^-2],a_RS_S_y [m s^-2],a_RS_S_z [m s^-2]
1520500644190003571,-0.1269924273,0.0434041844,-0.0046001652,0.5929731814,0.2541762675,9.8631778946
1520500644195020571,-0.1325243927,0.0396081921,-0.0024544302,0.6182271034,0.2433820368,9.8734019081
1520500644200036571,-0.1352895228,0.0363902243,0.0018549841,0.6254425097,0.2553728791,9.8001049152
1520500644205051571,-0.1365481771,0.0331772180,0.0045383228,0.6049988586,0.2457813479,9.7770703768
1520500644210068571,-0.1375569400,0.0290908849,0.0069439795,0.5917706137,0.2613712037,9.6993202861
1520500644215084571,-0.1370574238,0.0261743228,0.0080029988,0.5737320980,0.2062121491,9.6519017494
1520500644220100571,-0.1340370040,0.0276229573,0.0115256102,0.6206322388,0.2445809899,9.6781371443
1520500644225116571,-0.1292646628,0.0241202009,0.0144660703,0.6555067025,0.2074049207,9.6348346209
1520500644230132571,-0.1242384706,0.0226579630,0.0171510794,0.7228504944,0.1450443737,9.6784014136
1520500644235148571,-0.1189542953,0.0249787235,0.0217583431,0.6603169733,0.1738286142,9.6603877091
1520500644240163571,-0.1109060916,0.0290576153,0.0231272606,0.6362656191,0.1894193129,9.6141208507
1520500644245179571,-0.1033618459,0.0334335222,0.0223349675,0.6049988586,0.1990148714,9.6504422900
1520500644250195571,-0.1016025777,0.0337263243,0.0220633776,0.7000017079,0.1462452937,9.6832712162
1520500644255210571,-0.1008459565,0.0345956742,0.0239624680,0.7384838747,0.1006749604,9.6910760969
1520500644260228571,-0.0990846262,0.0342962377,0.0272035286,0.7288633330,0.0754937608,9.7400043396
1520500644265243571,-0.1016006528,0.0310856528,0.0288070173,0.7324710361,0.1258573776,9.7166772331
1520500644270259571,-0.1036113571,0.0287443193,0.0323100630,0.7444967133,0.1294538623,9.7967446073
1520500644275275571,-0.1033617872,0.0226034898,0.0403792884,0.7697506352,0.1390450188,9.8766773793
1520500644280290571,-0.1109110628,0.0091706243,0.0500306804,0.7000017079,0.2086005957,9.9435306563
1520500644285307571,-0.1144454966,-0.0086314337,0.0596412586,0.6879760307,0.2157963748,9.9878021610
1520500644290323571,-0.1137031810,-0.0208860424,0.0657690444,0.6699375151,0.1942132521,9.9287294433
1520500644295340571,-0.1154694982,-0.0299364059,0.0719259515,0.6651272442,0.1894170650,9.9299430849
1520500644300355571,-0.1094432621,-0.0366497273,0.0770039912,0.6987991402,0.1786221787,9.9249772915
1520500644305370571,-0.1041727651,-0.0427718338,0.0788413265,0.6434810254,0.2169989807,9.8859654108
1520500644310386571,-0.0991485527,-0.0456909943,0.0815152201,0.6458861608,0.2301893380,9.8731455545
1520500644315403571,-0.0903605307,-0.0518095371,0.0825343836,0.6218348065,0.2409834750,9.7838840471
1520500644320418571,-0.0803072603,-0.0518099695,0.0841389900,0.6266450774,0.1990131855,9.6967173572
1520500644325434571,-0.0642139775,-0.0462761035,0.0873979091,0.6422784577,0.1714317382,9.5699183952
1520500644330451571,-0.0503859438,-0.0419021058,0.0882172233,0.6518989994,0.1150713890,9.5338532511
1520500644335465571,-0.0345456260,-0.0354847151,0.0879661817,0.6518989994,0.0743006147,9.5036772659
1520500644340482571,-0.0131762046,-0.0281888194,0.0868999038,0.6266450774,0.0515189135,9.4679188269
1520500644345498571,0.0089494929,-0.0176808428,0.0834217666,0.5196165509,0.0035616323,9.5584924350
1520500644350514571,0.0310652091,-0.0124083180,0.0763865171,0.4943626290,-0.0396054561,9.6261846867
1520500644355529571,0.0506663963,-0.0085951573,0.0698859113,0.4029674828,-0.0959579379,9.6991821551
1520500644360546571,0.0674928759,-0.0100170746,0.0592922355,0.3668904514,-0.1535138684,9.7495616251
1520500644365562571,0.0820500173,-0.0146341813,0.0446201178,0.4137905922,-0.2530461763,9.7677964864
1520500644370578571,0.0968623231,-0.0186786186,0.0337396221,0.4186008630,-0.3010121678,9.7956878946
1520500644375594571,0.1071532298,-0.0212679054,0.0228786429,0.4234111339,-0.3154022276,9.8526001602
1520500644380611571,0.1121567032,-0.0293868246,0.0087386754,0.3885366702,-0.3225943540,9.9342966997
1520500644385625571,0.1169085211,-0.0395535467,-0.0024403820,0.3175851752,-0.2746232111,9.9186705091
1520500644390642571,0.1183909961,-0.0494206947,-0.0171282457,0.2959389563,-0.2734223848,9.9572307812
1520500644395658571,0.1188590785,-0.0668678763,-0.0305193131,0.2899261178,-0.2494391080,9.9386716165
1520500644400673571,0.1183322997,-0.0784957739,-0.0408880471,0.2815081438,-0.2122650993,9.9270958628
1520500644405689571,0.1162980770,-0.0910035148,-0.0493668288,0.2646721958,-0.1798869966,9.9644167680
1520500644410706571,0.1107448394,-0.1023390833,-0.0608061888,0.2827107115,-0.1906806653,9.9444952689
1520500644415721571,0.1041966506,-0.1087331636,-0.0678771552,0.3127749043,-0.1379208282,9.8558282511
1520500644420737571,0.0963984795,-0.1101734707,-0.0751785414,0.3777135608,-0.1091465157,9.7738180371
1520500644425753571,0.0858419998,-0.1090004128,-0.0794787810,0.3861315348,-0.0911600649,9.6993413486
1520500644430769571,0.0752976578,-0.1008428675,-0.0804791158,0.4173982953,-0.0599848491,9.6025486661
1520500644435786571,0.0655160527,-0.0871530913,-0.0798153368,0.4883497904,0.0071614887,9.5483339628
1520500644440801571,0.0567374005,-0.0746262741,-0.0799739547,0.5641115563,0.0407315200,9.5254830677
1520500644445816571,0.0482172568,-0.0589035983,-0.0765914888,0.6194296711,0.0671083009,9.4784331514
1520500644450833571,0.0422130887,-0.0426044532,-0.0705037849,0.6531015671,0.1270626996,9.4710740792
1520500644455848571,0.0336974220,-0.0274820288,-0.0606326637,0.6903811662,0.1594365876,9.4939225293
1520500644460865571,0.0339780926,-0.0123590722,-0.0496956941,0.6735452182,0.1942129711,9.5498353991
1520500644465881571,0.0297261869,-0.0048175276,-0.0374553943,0.6494938639,0.2469770229,9.5558287691
1520500644470896571,0.0249652266,0.0018671488,-0.0317139318,0.6951914370,0.2661597106,9.5530409796
1520500644475913571,0.0227147417,0.0047560698,-0.0227594858,0.7240530621,0.2337806714,9.4958465766
1520500644480930571,0.0237349247,0.0102680030,-0.0135205536,0.7012042756,0.2397781530,9.5727646270
1520500644485965571,0.0235013422,0.0181119769,-0.0048025950,0.6506964316,0.2409812272,9.6081193886
1520500644490960571,0.0260192506,0.0189747317,-0.0002013127,0.5857577751,0.2253974593,9.6610631410
1520500644495976571,0.0290275328,0.0134388788,0.0000213939,0.5593012855,0.2002175709,9.6903988073
1520500644500993571,0.0320358111,0.0064395473,0.0026678981,0.5725295303,0.1858268556,9.7948770396
1520500644506007571,0.0330334752,-0.0020233220,0.0074713879,0.5809475043,0.1810296383,9.8447719716
1520500644511024571,0.0337731563,-0.0142691895,0.0103526230,0.5099960092,0.1642471983,9.8861539791
1520500644516041571,0.0375292152,-0.0259311065,0.0132327036,0.5003754675,0.1882307560,9.8141713076
1520500644521057571,0.0400323946,-0.0323369394,0.0118263990,0.5196165509,0.2361948744,9.9103952013
1520500644526073571,0.0395123707,-0.0466215340,0.0141533143,0.6001885877,0.2421843013,9.9723608893
1520500644531087571,0.0407560529,-0.0594572580,0.0197346288,0.6506964316,0.2325872442,9.9974457987
1520500644536103571,0.0452672354,-0.0720010459,0.0255826448,0.6591144056,0.2145994822,9.9776249562
1520500644541120571,0.0522934370,-0.0804528111,0.0271283824,0.6350630514,0.2158004959,9.9046428188
1520500644546135571,0.0555526220,-0.0862799501,0.0273483992,0.6025937231,0.1786296715,9.8747793621
1520500644551150571,0.0636010453,-0.0822017867,0.0289878627,0.5508833115,0.1894259627,9.8508671324
1520500644556166571,0.0716459127,-0.0778191271,0.0257597230,0.5484781760,0.1702399033,9.8567199717
1520500644561184571,0.0776827261,-0.0699326280,0.0195859894,0.5280345249,0.1114836148,9.9022998695
1520500644566200571,0.0852280303,-0.0638040434,0.0171837594,0.4919574935,0.0515294034,9.8504130102
1520500644571216571,0.0917650617,-0.0591291331,0.0134195514,0.4510701913,0.0935025026,9.8159057366
1520500644576232571,0.0990583261,-0.0509493003,0.0067046154,0.3729032900,0.1294828032,9.8491715158
1520500644581248571,0.1018139649,-0.0503341257,-0.0049295459,0.3704981545,0.0851147949,9.9352368441
1520500644586262571,0.1030647117,-0.0485583743,-0.0149287391,0.4222085662,0.0455391335,10.0172843356
1520500644591279571,0.1068287096,-0.0470752082,-0.0241231850,0.4630958684,0.0683196171,10.0064048507
1520500644596296571,0.1055656723,-0.0473466889,-0.0316983596,0.5256293895,0.0827044319,10.0208900271
1520500644601311571,0.1012905225,-0.0458746861,-0.0379018654,0.5737320980,0.1006877919,10.0180799968
1520500644606325571,0.0975235962,-0.0423722643,-0.0405736465,0.6603169733,0.1942140014,10.0717667902
1520500644611344571,0.0864718148,-0.0385893259,-0.0402536647,0.6302527805,0.2134025896,10.0278792369
1520500644616358571,0.0729056847,-0.0345101601,-0.0420911597,0.5785423689,0.2062117745,10.0144438429
1520500644621375571,0.0575832345,-0.0283919918,-0.0439098261,0.5532884469,0.2325948307,10.0239610752
1520500644626390571,0.0402470025,-0.0260684375,-0.0435892916,0.5989860200,0.1906213568,10.0119357704
1520500644631407571,0.0229109901,-0.0237456116,-0.0429982112,0.6134168325,0.1954167945,10.0350335115
1520500644636422571,0.0053250392,-0.0217200961,-0.0402445200,0.6134168325,0.1390571946,9.9595491134
1520500644641439571,-0.0130150277,-0.0196941475,-0.0377599746,0.5941757491,0.1186733060,9.9214055226
1520500644646455571,-0.0285886042,-0.0147474432,-0.0374226994,0.5412627698,0.0851014952,9.8731432405
1520500644651471571,-0.0436578659,-0.0080500496,-0.0378846568,0.5448704729,0.0779063717,9.8091972239
1520500644656486571,-0.0567183208,-0.0025174064,-0.0383592404,0.6134168325,0.0431259608,9.7260517257
1520500644661503571,-0.0639916812,0.0106036971,-0.0425744009,0.6170245357,0.0251385734,9.6609540892
1520500644666518571,-0.0695052952,0.0222598258,-0.0435573932,0.6362656191,0.0071499685,9.6108121584
1520500644671535571,-0.0714944803,0.0377016897,-0.0431652900,0.6747477859,0.0287314990,9.5894979573
1520500644676550571,-0.0714682566,0.0578108643,-0.0443646265,0.6362656191,0.0515181642,9.5503374072
1520500644681567571,-0.0669248561,0.0738446129,-0.0464151250,0.5689218272,0.1042855878,9.5102664010
1520500644686581571,-0.0651597660,0.0837771427,-0.0555413677,0.5400602021,0.1294697845,9.5407385091
1520500644691598571,-0.0621233627,0.1018565482,-0.0600084173,0.5388576343,0.1582492483,9.5697757489
1520500644696614571,-0.0548121114,0.1205138406,-0.0620440420,0.5472756083,0.1714391374,9.5929238298
1520500644701630571,-0.0507807607,0.1321882793,-0.0684556876,0.4847420873,0.1822362715,9.6713856136
1520500644706645571,-0.0432284115,0.1456109467,-0.0743194371,0.3945495088,0.2505943001,9.6989261515
1520500644711662571,-0.0381824996,0.1622305750,-0.0774486065,0.4270188370,0.2757737202,9.7136934302
1520500644716678571,-0.0371602739,0.1762239821,-0.0797786783,0.3957520765,0.2829709979,9.7174771775
1520500644721694571,-0.0391536774,0.1905090490,-0.0826420182,0.3572699097,0.2649868887,9.7655171815
1520500644726709571,-0.0411549060,0.2013076996,-0.0893196777,0.3849289671,0.2194173984,9.7757516957
1520500644731726571,-0.0471742813,0.2120960338,-0.0927433188,0.4486650559,0.2062218898,9.7914142058
1520500644736741571,-0.0567114522,0.2202474171,-0.0913106074,0.4799318164,0.2529859311,9.7957128459
1520500644741757571,-0.0665020311,0.2278203035,-0.0915051509,0.4703112747,0.2110167656,9.7563345188
1520500644746774571,-0.0783024792,0.2333417841,-0.0876533338,0.4186008630,0.1810422824,9.7777856609
1520500644751790571,-0.0896125966,0.2327574982,-0.0887189610,0.3584724774,0.1666572803,9.8283571358
1520500644756804571,-0.1004196302,0.2333425896,-0.0911293588,0.3211928783,0.1690584646,9.8229069341
1520500644761821571,-0.1102226132,0.2327610798,-0.0930094240,0.3620801805,0.1330810674,9.7946525875
1520500644766837571,-0.1192734169,0.2304293729,-0.0940925902,0.3079646335,0.1402801247,9.7940101550
1520500644771853571,-0.1245508256,0.2298423510,-0.0932755975,0.3536622065,0.1750516379,9.7644778532
1520500644776869571,-0.1315894001,0.2254564430,-0.0886965953,0.3272057169,0.1894433835,9.7519377489
1520500644781885571,-0.1353640731,0.2219598087,-0.0892573633,0.2526465187,0.1666655224,9.7550099677
1520500644786900571,-0.1361261476,0.2178888711,-0.0925336371,0.2334054352,0.1270953869,9.7343172456
1520500644791920571,-0.1406553758,0.2143941267,-0.0939046425,0.2574567895,0.1294917946,9.7863772838
1520500644796933571,-0.1411634307,0.2097288636,-0.0928570949,0.2273925967,0.1330915574,9.7866664022
1520500644801949571,-0.1404164419,0.2044835091,-0.0926279647,0.2069489456,0.1366905709,9.8589148053
1520500644806964571,-0.1404278386,0.1954476750,-0.0916146967,0.1492256953,0.1702709984,9.8675789142
1520500644811981571,-0.1381845398,0.1817527599,-0.0914528364,0.1372000182,0.1738693563,9.8653681688
1520500644816996571,-0.1366991873,0.1642659084,-0.0899657465,0.1660616433,0.1894559339,9.9069092284
1520500644822013571,-0.1332115398,0.1406600411,-0.0882585292,0.2610644926,0.2841806282,9.8803249841
1520500644827029571,-0.1254457003,0.1202552498,-0.0843704252,0.3572699097,0.3357361736,9.7817182059
1520500644832044571,-0.1154113616,0.1012922418,-0.0745233965,0.4186008630,0.3621124863,9.7694740830
1520500644837060571,-0.1003528576,0.0782394362,-0.0601175453,0.4955651967,0.4064746877,9.6884937610
1520500644842076571,-0.0862933860,0.0610197548,-0.0478297326,0.4606907330,0.4376550549,9.6713706455
1520500644847092571,-0.0664491173,0.0461275866,-0.0333705027,0.5232242541,0.4856158015,9.6300401706
1520500644852108571,-0.0448345405,0.0385163502,-0.0172356874,0.6555067025,0.5851341540,9.4613068298
1520500644857123571,-0.0264870759,0.0279776053,0.0034822448,0.6482912962,0.6295029117,9.4590095067
1520500644862140571,-0.0051141733,0.0235540179,0.0261350823,0.6362656191,0.6366986908,9.4579573973
1520500644867156571,0.0142557365,0.0270079515,0.0447934884,0.5905680460,0.5623555436,9.4108267863
1520500644872173571,0.0336154924,0.0263977989,0.0577393075,0.3536622065,0.3549227014,9.4133349781
1520500644877187571,0.0486999732,0.0296016517,0.0604412170,0.2370131384,0.1522770549,9.5041530714
1520500644882204571,0.0582433030,0.0258203079,0.0593123979,0.1841001590,0.1211035249,9.5930214372
1520500644887219571,0.0660304852,0.0229066010,0.0603578822,0.0433997366,0.1007290959,9.6943551877
1520500644892235571,0.0700358358,0.0159346153,0.0529923214,-0.0792621701,0.0299893642,9.7769681712
1520500644897251571,0.0672480693,0.0040108049,0.0439782943,-0.2440139468,-0.0371496681,9.9122838017
1520500644902268571,0.0594305941,-0.0079025913,0.0303743214,-0.2909140876,-0.0743193684,10.0847738536
1520500644907282571,0.0448243104,-0.0227332195,0.0170312651,-0.3149654419,-0.1126899888,10.1768547460
1520500644912299571,0.0274517598,-0.0390218533,0.0036822273,-0.3498399055,-0.1234795365,10.2236904749
1520500644917316571,0.0083191961,-0.0550154213,-0.0112845957,-0.2993320616,-0.0851109766,10.2510528985
1520500644922331571,-0.0080386640,-0.0672373897,-0.0197345510,-0.2692678688,-0.0695244926,10.2298264796
1520500644927348571,-0.0271626107,-0.0791617722,-0.0308826083,-0.3450296347,-0.0371418006,10.1956680073
1520500644932363571,-0.0417632216,-0.0907915412,-0.0425779353,-0.3654732858,-0.0023651361,10.1958330824
1520500644937378571,-0.0543461851,-0.0980541252,-0.0526203744,-0.2861038167,0.0240097716,10.1148468904
1520500644942395571,-0.0649088669,-0.1009582654,-0.0577633749,-0.2644575979,0.0971556516,10.0797005511
1520500644947411571,-0.0714410486,-0.0983318086,-0.0601661454,-0.1562265037,0.1942775965,9.9879051511
1520500644952427571,-0.0729367863,-0.0892987506,-0.0603649753,-0.1454033943,0.2146621407,9.8320526369
1520500644957441571,-0.0741740156,-0.0770698339,-0.0570227213,-0.1045160921,0.2206546584,9.7165965669
1520500644962459571,-0.0723829842,-0.0540519524,-0.0560387270,-0.0792621701,0.2446355000,9.5966265466
1520500644967474571,-0.0700857954,-0.0298748917,-0.0526118606,-0.0287543262,0.2290427408,9.5380429379
1520500644972491571,-0.0635119553,-0.0039551344,-0.0464741312,0.0734639294,0.2626107116,9.5474745622
1520500644977507571,-0.0574397915,0.0216686709,-0.0387144159,0.0939075805,0.2374271705,9.4903550786
1520500644982522571,-0.0521212185,0.0467057696,-0.0296050172,0.0854896066,0.2278347027,9.5125271039
1520500644987537571,-0.0447958616,0.0694140366,-0.0210582288,0.0638433877,0.1834681929,9.5929689933
1520500644992553571,-0.0397377769,0.0897983540,-0.0155010293,-0.0371723002,0.1055319328,9.6254061118
1520500644997571571,-0.0389573588,0.1063944556,-0.0105058875,-0.0648313576,0.0311873807,9.6303964030
1520500645002586571,-0.0389457426,0.1154295613,-0.0112486096,-0.1009083890,-0.0815290093,9.6157496012
1520500645007601571,-0.0434594852,0.1230059721,-0.0119940460,-0.2055317800,-0.1930409202,9.7179832136
1520500645012619571,-0.0464771332,0.1235970293,-0.0155010958,-0.2668627333,-0.2997596412,9.8372229260
1520500645017634571,-0.0525206113,0.1192450229,-0.0233690717,-0.3462322024,-0.3513164979,9.8636129084
1520500645022650571,-0.0573180587,0.1099523552,-0.0358764539,-0.3738912598,-0.3573100458,9.9336166086
1520500645027666571,-0.0636212410,0.0986033796,-0.0424445876,-0.4628812706,-0.2937486725,9.9704472704
1520500645032682571,-0.0736969440,0.0840433268,-0.0474068991,-0.4737043800,-0.3249254806,9.9264215484
1520500645037697571,-0.0787503164,0.0689119436,-0.0559000879,-0.5001608697,-0.3165294371,9.8836715480
1520500645042713571,-0.0827836352,0.0601710178,-0.0567709505,-0.4845274894,-0.3009418292,9.8195862634
1520500645047730571,-0.0858209480,0.0467778030,-0.0611963461,-0.4821223540,-0.2829549102,9.7846809945
1520500645052746571,-0.0825709485,0.0377614596,-0.0669527930,-0.5326301979,-0.2613664488,9.7096122018
1520500645057761571,-0.0770581617,0.0287423602,-0.0713607109,-0.5518712813,-0.2553692482,9.6435514306
1520500645062777571,-0.0705388153,0.0208899211,-0.0760321492,-0.6071893961,-0.2781486078,9.6987328465
1520500645067794571,-0.0600032118,0.0124686716,-0.0853147815,-0.6336458858,-0.2865405303,9.6269456179
1520500645072809571,-0.0487131865,0.0034605778,-0.0929799848,-0.5759226356,-0.2889433068,9.6008189469
1520500645077826571,-0.0341539869,-0.0032122461,-0.1017156544,-0.4965531665,-0.3093348756,9.5280133668
1520500645082840571,-0.0175790727,-0.0058041705,-0.1106944804,-0.5157942499,-0.3129307983,9.4561512306
1520500645087856571,-0.0020042103,-0.0060719685,-0.1172187419,-0.5350353333,-0.2985396146,9.4481894717
1520500645092872571,0.0206113789,-0.0016683013,-0.1261554152,-0.4207914006,-0.2973493719,9.4145362913
1520500645097889571,0.0439929119,0.0088423529,-0.1304475238,-0.4544632966,-0.2817579239,9.3950923842
1520500645102905571,0.0625942277,0.0167352316,-0.1371856854,-0.5121865468,-0.3285199048,9.4421855894
1520500645107919571,0.0824431109,0.0196823500,-0.1466694320,-0.5242122239,-0.2949430363,9.5247821192
1520500645112937571,0.0992666384,0.0144651495,-0.1545865490,-0.5266173593,-0.2373841087,9.6212073492
1520500645117953571,0.1135727319,0.0051639389,-0.1611773925,-0.5566815522,-0.2769534011,9.7296179515
1520500645122969571,0.1253613011,-0.0090990774,-0.1650959022,-0.5230096562,-0.2493757939,9.8175862557
1520500645127985571,0.1356447119,-0.0233714257,-0.1657650608,-0.5614918230,-0.2265891287,9.8435057670
1520500645133000571,0.1459203798,-0.0431793516,-0.1667470040,-0.5242122239,-0.2181980492,9.8942690589
1520500645138016571,0.1577009397,-0.0641478543,-0.1693639151,-0.5410481719,-0.2110018954,9.9211552246
1520500645143033571,0.1652156176,-0.0825043111,-0.1687063335,-0.5001608697,-0.2014119565,9.9358557694
1520500645148048571,0.1724861592,-0.0988357434,-0.1626218057,-0.4628812706,-0.2038131408,9.9622245623
1520500645153065571,0.1802589065,-0.1139948847,-0.1589642320,-0.5037685728,-0.1678357437,9.8812373772
1520500645158079571,0.1895437944,-0.1288751625,-0.1504374094,-0.4821223540,-0.1354606381,9.8728601063
1520500645163096571,0.1953085700,-0.1425796257,-0.1462238947,-0.4640838383,-0.1030852516,9.8761393902
1520500645168112571,0.2013247737,-0.1571625147,-0.1403942407,-0.4881351925,-0.0886936933,9.8961159065
1520500645173129571,0.2093526422,-0.1714561451,-0.1334839137,-0.4376273486,-0.0779053632,9.8665601712
1520500645178144571,0.2126163043,-0.1778835356,-0.1267752416,-0.4496530257,-0.0527224777,9.8771119612
1520500645183161571,0.2138697954,-0.1843124421,-0.1197922898,-0.4484504580,-0.0359346054,9.8747595975
1520500645188175571,0.2143722519,-0.1878241566,-0.1141384364,-0.4195888329,-0.0251445895,9.9302510619
1520500645193192571,0.2121094961,-0.1925046775,-0.1076767038,-0.4123734266,-0.0275434323,9.9046160033
1520500645198207571,0.2101038883,-0.1936921277,-0.0998360314,-0.4364247809,-0.0311389803,9.8781243015
1520500645203223571,0.2073404715,-0.1966230815,-0.0939011185,-0.4099682912,-0.0227470579,9.9441008102
1520500645208239571,0.2043326557,-0.1972354408,-0.0833486741,-0.4821223540,0.0000422297,9.9715102071
1520500645213255571,0.1942815258,-0.2013398869,-0.0755152974,-0.4929454634,0.0216276003,9.9762430803
1520500645218272571,0.1832195748,-0.2074749489,-0.0712127120,-0.4881351925,0.0324194895,10.0168607745
1520500645223288571,0.1696457764,-0.2139074791,-0.0650138612,-0.5025660051,0.0228274900,10.0669827799
1520500645228304571,0.1538098454,-0.2218029169,-0.0569281041,-0.4183862652,0.0276174955,10.1091580749
1520500645233319571,0.1397314616,-0.2326195236,-0.0458918400,-0.3426244993,-0.0023669157,10.0817205789
1520500645238334571,0.1196187813,-0.2460624108,-0.0343232905,-0.3233834158,-0.0203555206,10.1140908688
1520500645243351571,0.1000081695,-0.2603814400,-0.0219507061,-0.2560396239,0.0120160259,10.1587274277
1520500645248367571,0.0814013886,-0.2758663420,-0.0093183350,-0.1730624517,0.0323949506,10.1125762858
1520500645253383571,0.0617930192,-0.2890220183,0.0038747795,-0.1369854203,0.0623706514,10.0459536952
1520500645258398571,0.0424404375,-0.2983874121,0.0162846897,-0.1442008266,0.0659686346,9.9844267880
1520500645263415571,0.0281232453,-0.3016354039,0.0300846796,-0.1718598840,0.1043432823,9.8893627812
1520500645268431571,0.0150631236,-0.3028359273,0.0411924386,-0.1778727226,0.1307248399,9.7569111702
1520500645273447571,0.0035179300,-0.2958639816,0.0474898176,-0.2416088114,0.1259332422,9.6912940102
1520500645278464571,-0.0060096555,-0.2827685309,0.0524774180,-0.2800909782,0.1235379585,9.6207801294
1520500645283478571,-0.0112578611,-0.2655978506,0.0596525745,-0.2957243585,0.0887641038,9.5175353941
1520500645288494571,-0.0172598690,-0.2460861913,0.0630592733,-0.3233834158,0.0551903261,9.5004051926
1520500645293512571,-0.0247744175,-0.2286082587,0.0640182979,-0.3762963952,0.0216185153,9.5195472598
1520500645298526571,-0.0262523801,-0.2061700555,0.0633806381,-0.3618655827,-0.0503310340,9.4985583683
1520500645303542571,-0.0279834487,-0.1863602390,0.0648878044,-0.3823092338,-0.0958967779,9.4325595838
1520500645308557571,-0.0334882574,-0.1659523763,0.0601838622,-0.4003477495,-0.1186790410,9.4897024308
1520500645313575571,-0.0339685440,-0.1475866069,0.0570782992,-0.3859169369,-0.1078879012,9.5418479240
1520500645318590571,-0.0374737823,-0.1341668146,0.0506939938,-0.4015503172,-0.1390643346,9.5827055310
1520500645323607571,-0.0404780148,-0.1248393206,0.0491474578,-0.4195888329,-0.1018895766,9.5700612738
1520500645328622571,-0.0437391757,-0.1190056257,0.0464925280,-0.3847143692,-0.0946974502,9.5569312276
1520500645333638571,-0.0485053618,-0.1125963083,0.0462797577,-0.3305988221,-0.0815111202,9.5087437353
1520500645338653571,-0.0505062023,-0.1044332302,0.0444519166,-0.3474347701,-0.0359424729,9.4647017009
1520500645343670571,-0.0542657465,-0.0989064138,0.0474771609,-0.3522450410,-0.0383403791,9.4275622533
1520500645348686571,-0.0560142375,-0.0919175164,0.0488865115,-0.3606630150,-0.0179543363,9.3730035440
1520500645353700571,-0.0552446359,-0.0808467943,0.0497812263,-0.3774989629,0.0120254856,9.3847596209
1520500645358718571,-0.0600054079,-0.0694795694,0.0479829731,-0.3943349109,0.0168233585,9.3035687375
1520500645363733571,-0.0650119353,-0.0540330596,0.0462163098,-0.3750938275,-0.0011652464,9.3301283077
1520500645368749571,-0.0672485968,-0.0377258817,0.0498620997,-0.3510424732,-0.0023662600,9.3008417770
1520500645373765571,-0.0679803626,-0.0211158022,0.0494491240,-0.3823092338,-0.0203509312,9.2767586255
1520500645378782571,-0.0687092704,-0.0030517137,0.0501294472,-0.4412350517,-0.0119523589,9.3226476021
1520500645383798571,-0.0709487859,0.0132649337,0.0502581405,-0.4556658643,0.0300186798,9.3529628787
1520500645388812571,-0.0681659357,0.0257904524,0.0522424205,-0.4556658643,0.0420100840,9.3029789953
1520500645393829571,-0.0729292168,0.0348244158,0.0512380203,-0.4316145100,0.0000382960,9.4887288537
1520500645398845571,-0.0761727437,0.0505513445,0.0537990474,-0.4015503172,-0.0227477135,9.4268648152
1520500645403861571,-0.0774069425,0.0630629045,0.0603900751,-0.4219939683,0.0216220744,9.4607227103
1520500645408877571,-0.0748685774,0.0784927004,0.0659141494,-0.4268042392,0.0599949426,9.4677049754
1520500645413893571,-0.0675588747,0.0927646563,0.0692560963,-0.4015503172,0.0396075885,9.3838046833
1520500645418910571,-0.0612569235,0.1035323197,0.0752786921,-0.3570553118,0.0408032635,9.3729111312
1520500645423925571,-0.0506782347,0.1154569969,0.0850898885,-0.2788884105,0.0312040522,9.4314289990
1520500645428940571,-0.0393466648,0.1253364504,0.0970484902,-0.2259754311,0.0228059482,9.5076236628
1520500645433957571,-0.0290214351,0.1340485150,0.1095411584,-0.2031266446,0.0431895559,9.5561914341
1520500645438972571,-0.0164380324,0.1413096422,0.1201246893,-0.1959112383,0.0659726620,9.6386112070
1520500645443989571,-0.0015966804,0.1456570817,0.1309523347,-0.1874932643,0.0827599723,9.7175386898
1520500645449005571,0.0122270721,0.1418497313,0.1400963253,-0.1610367746,0.0863553330,9.7974656034
1520500645454020571,0.0295664129,0.1362961805,0.1489498973,-0.1417956912,0.1187306259,9.8367596447
1520500645459037571,0.0416189753,0.1237473334,0.1577599165,-0.2031266446,0.1403199302,9.8803348808
1520500645464053571,0.0559260605,0.1077107709,0.1635630533,-0.1814804257,0.1906821421,9.8882100852
1520500645469069571,0.0704890198,0.0948788082,0.1696607232,-0.1514162329,0.1762901155,9.9530115523
1520500645474084571,0.0865603012,0.0829237751,0.1749506243,-0.1947086706,0.1846874702,9.9615597567
1520500645479100571,0.0988523815,0.0654382435,0.1774998287,-0.2007215091,0.2410475384,9.9499418835
1520500645484117571,0.1141701664,0.0552377781,0.1803695555,-0.2307857020,0.2374524586,9.9432651542
1520500645489131571,0.1269710935,0.0430002786,0.1818756584,-0.2163548894,0.2410487560,9.9442833294
1520500645494149571,0.1334863391,0.0287220829,0.1828367760,-0.2007215091,0.2242595725,10.0138761717
1520500645499164571,0.1445281353,0.0182402141,0.1813834796,-0.1898983997,0.2422458359,9.9602946642
1520500645504179571,0.1510442159,0.0042519461,0.1828879121,-0.1718598840,0.2086684991,9.9008824882
1520500645509196571,0.1578133125,-0.0079857311,0.1835935787,-0.2235702957,0.2122699478,9.9246251767
1520500645514212571,0.1635788055,-0.0161313069,0.1794624092,-0.2331908374,0.1810930461,9.9619378265
1520500645519228571,0.1675866573,-0.0236969882,0.1761505906,-0.2440139468,0.1619076422,9.9574133056
1520500645524243571,0.1688366867,-0.0274801241,0.1744960815,-0.2969269262,0.1391280952,9.9777069928
1520500645529260571,0.1731061323,-0.0274697092,0.1712415965,-0.3871195046,0.1415334006,9.9936904047
1520500645534276571,0.1733561727,-0.0219041675,0.1604615326,-0.3871195046,0.1655162090,9.9913427300
1520500645539291571,0.1726018137,-0.0142927720,0.1472639841,-0.4207914006,0.1895016400,10.0299978353
1520500645544308571,0.1733568746,-0.0058080891,0.1346113962,-0.4039554526,0.1799072054,10.0263568874
1520500645549324571,0.1713499340,0.0035460222,0.1233233411,-0.3919297755,0.2122830602,10.0738561668
1520500645554338571,0.1685843532,0.0123301809,0.1071624139,-0.3859169369,0.2194774344,10.0621691859
1520500645559356571,0.1668245362,0.0202347523,0.0931573177,-0.3630681504,0.2494541655,10.1084033145
1520500645564371571,0.1630566141,0.0290090476,0.0805153540,-0.3041423324,0.2662375421,10.1554612981
1520500645569387571,0.1550130875,0.0334028884,0.0708239832,-0.2319882697,0.2686302033,10.1675402396
1520500645574404571,0.1482255650,0.0351645628,0.0648979135,-0.1526188006,0.2602300388,10.1725866110
1520500645579419571,0.1419423494,0.0357499695,0.0630202065,-0.0732493316,0.2602238572,10.1381119026
1520500645584435571,0.1311320540,0.0316627103,0.0643618818,0.0133355438,0.2650136754,10.1419130370
1520500645589450571,0.1210765293,0.0261093543,0.0692081383,0.0626408200,0.2350313248,10.1403002192
1520500645594468571,0.1095138663,0.0190897438,0.0772926304,0.1227692057,0.2038489908,10.0839624594
1520500645599483571,0.0997195787,0.0190647795,0.0851566636,0.1227692057,0.1654764972,10.0514598475
1520500645604498571,0.0946997101,0.0207987343,0.0897786168,0.0878947420,0.1630809325,10.0029915868
1520500645609514571,0.0846587889,0.0248559686,0.0965920563,0.1480231276,0.1414917219,10.0326431249
1520500645614531571,0.0768816233,0.0297853290,0.1044901482,0.0915024451,0.1534875281,10.0459651526
1520500645619547571,0.0728728032,0.0364761282,0.1080658433,0.1287820442,0.1642768885,10.0455917718
1520500645624563571,0.0678605089,0.0463805046,0.1084213086,0.1011229868,0.1606816214,10.0319187687
1520500645629579571,0.0615877177,0.0536633848,0.1082180079,0.1384025859,0.1510855946,10.0722403050
1520500645634594571,0.0631124547,0.0682426715,0.1048092652,0.1251743411,0.1630780290,10.0409794805
1520500645639609571,0.0626225357,0.0804937365,0.1000337421,0.1071358254,0.1738716978,10.1027381619
1520500645644626571,0.0591172973,0.0939135287,0.0936494366,0.1528333985,0.1858595429,10.1034438203
1520500645649642571,0.0578745403,0.1079169761,0.0872653769,0.1564411016,0.1702704364,10.1103967703
1520500645654656571,0.0533600177,0.1193010534,0.0792441013,0.2141643518,0.1079106387,10.1087335892
1520500645659674571,0.0493430353,0.1277751245,0.0698469320,0.2598619249,0.0923182542,10.0385753612
1520500645664690571,0.0480908654,0.1356631390,0.0620634580,0.3151800397,0.0923139458,9.9741190112
1520500645669706571,0.0435673689,0.1409303265,0.0531838599,0.3632827482,0.0551368463,9.9388227398
1520500645674723571,0.0413088159,0.1479437935,0.0453955835,0.3717007222,0.0407465056,9.8864583585
1520500645679738571,0.0365358670,0.1540828509,0.0373347592,0.3837263994,-0.0048217671,9.8550078561
1520500645684754571,0.0322641124,0.1608121585,0.0265719886,0.3512570711,-0.0503865744,9.7658832430
1520500645689769571,0.0302569914,0.1684106784,0.0179760539,0.3921443734,-0.0983553758,9.7341541579
1520500645694786571,0.0269903419,0.1742625841,0.0085574767,0.3368262586,-0.1391218418,9.6940573097
1520500645699801571,0.0229668047,0.1780752312,-0.0011458079,0.3272057169,-0.1870867095,9.6639819809
1520500645704817571,0.0214637319,0.1862545317,-0.0089265921,0.2430259770,-0.1966732767,9.7054857279
1520500645709833571,0.0199618980,0.1979421015,-0.0210094337,0.1961258361,-0.2326438366,9.6188165087
1520500645714849571,0.0192031873,0.2038117456,-0.0366552338,0.1612513725,-0.2362385417,9.5912680085
1520500645719865571,0.0189459766,0.2096852289,-0.0536546968,0.0842870388,-0.2650119177,9.6548009698
1520500645724883571,0.0199440761,0.2161485294,-0.0730869603,0.0734639294,-0.2566170918,9.6990596002
1520500645729897571,0.0221920245,0.2170731023,-0.0914816125,0.0458048720,-0.2853943078,9.6947083048
1520500645734913571,0.0241895955,0.2177018218,-0.1082547457,0.1035281222,-0.2877970843,9.7487695666
1520500645739929571,0.0266873883,0.2165824309,-0.1250421508,0.1576436693,-0.3321694946,9.7703668398
1520500645744946571,0.0284274976,0.2113775339,-0.1396949118,0.1901129976,-0.3357694447,9.7328657047
1520500645749961571,0.0294155529,0.2055808313,-0.1511041680,0.2009361070,-0.2686184240,9.7478027476
1520500645754976571,0.0319115776,0.2000768324,-0.1627845474,0.2177720550,-0.3381698798,9.7349231150
1520500645759993571,0.0328921528,0.1884509823,-0.1736971735,0.2310002998,-0.2878070122,9.8230681877
1520500645765009571,0.0298420907,0.1692461025,-0.1841190405,0.3091672012,-0.2386483428,9.8338808556
1520500645770025571,0.0360988789,0.1544061637,-0.1910077333,0.4582855976,-0.0995596675,9.9148060060
1520500645775041571,0.0355651374,0.1334350220,-0.1944134128,0.4919574935,-0.0515966730,9.9330257941
1520500645780056571,0.0355436574,0.1138955048,-0.1883398039,0.4859446550,-0.0647867494,9.9075300152
1520500645785073571,0.0380359185,0.0966960611,-0.1852290824,0.5376550666,-0.0731847597,9.8640355568
1520500645790088571,0.0417899114,0.0841629042,-0.1834378546,0.5508833115,-0.0492029815,9.8557484067
1520500645795104571,0.0477965767,0.0658065851,-0.1830480186,0.4739189778,-0.0803746383,9.8844193881
1520500645800120571,0.0548171486,0.0538611193,-0.1826111415,0.5689218272,-0.0779837566,9.9334645399
1520500645805135571,0.0598226214,0.0381254102,-0.1816583390,0.5039831707,-0.0803769798,9.9585039747
1520500645810152571,0.0663421324,0.0261746486,-0.1793267073,0.5208191186,-0.1115559420,9.9665055144
1520500645815168571,0.0773878803,0.0156796680,-0.1759101775,0.4390445142,-0.0767745009,10.0602390638
1520500645820184571,0.0844080131,0.0037356592,-0.1760143923,0.3825238317,-0.0971554861,10.0247826176
1520500645825199571,0.0944442689,-0.0044038723,-0.1817767714,0.3211928783,-0.0827610243,10.0962563246
1520500645830216571,0.1002014546,-0.0157415662,-0.1908022209,0.2995466595,-0.0599756704,10.0464726082
1520500645835232571,0.1057104621,-0.0259189194,-0.1979244901,0.2706850343,-0.1031424778,10.0828220883
1520500645840248571,0.1099595019,-0.0378414299,-0.2064104937,0.2478362478,-0.1043398387,10.1109371086
1520500645845263571,0.1132066475,-0.0468483037,-0.2156840372,0.2069489456,-0.0827521266,10.1206111841
1520500645850279571,0.1164509781,-0.0576020277,-0.2255120110,0.2273925967,-0.0707623146,10.1599133991
1520500645855294571,0.1154262631,-0.0666113037,-0.2345070743,0.2165694873,-0.0635666291,10.1553631528
1520500645860312571,0.1131454891,-0.0770860073,-0.2405349146,0.2382157061,-0.0599708937,10.1574732417
1520500645865327571,0.1118641474,-0.0916389720,-0.2468662908,0.2718876021,-0.0323932865,10.1699021888
1520500645870343571,0.1105877768,-0.1026960508,-0.2529004442,0.2827107115,-0.0611734996,10.0826641109
1520500645875359571,0.1073027719,-0.1137597448,-0.2567664966,0.3163826074,-0.0551804199,10.0741955149
1520500645880376571,0.1017505301,-0.1303671867,-0.2582356740,0.3464468003,-0.0707715870,9.9867572933
1520500645885392571,0.0994743233,-0.1405643460,-0.2591209192,0.3993597796,-0.0491911804,10.0106262458
1520500645890406571,0.0959437747,-0.1504764404,-0.2578372405,0.3945495088,-0.0503899462,9.9502427497
1520500645895424571,0.0888925805,-0.1615525376,-0.2576381035,0.4390445142,-0.0911641860,9.9266065411
1520500645900439571,0.0866187848,-0.1732211882,-0.2531235462,0.4667035716,-0.1199457103,9.8891767824
1520500645905454571,0.0858554244,-0.1819710321,-0.2502128338,0.4570830299,-0.1043561355,9.8381208875
1520500645910471571,0.0800676281,-0.1892644656,-0.2478227632,0.4294239725,-0.1691075642,9.8268318085
1520500645915487571,0.0795603652,-0.1933469596,-0.2467707694,0.4222085662,-0.1894923894,9.8141383341
1520500645920502571,0.0762950251,-0.1904263816,-0.2497184760,0.3813212639,-0.2014806092,9.8064129918
1520500645925519571,0.0680048962,-0.1866336190,-0.2526501788,0.3404339617,-0.1906851610,9.7823954166
1520500645930535571,0.0587039463,-0.1848714723,-0.2591126731,0.3476493680,-0.2338547782,9.7858537143
1520500645935551571,0.0496572395,-0.1822409011,-0.2634045976,0.3608776128,-0.2506437744,9.7253098438
1520500645940566571,0.0393486754,-0.1819346140,-0.2704174321,0.4053726182,-0.2542446611,9.7353395604
1520500645945582571,0.0290474110,-0.1775547710,-0.2752347763,0.4390445142,-0.3046111813,9.7129801959
1520500645950599571,0.0134667111,-0.1763895097,-0.2773613143,0.4691087070,-0.2878255569,9.7521840932
1520500645955613571,-0.0033648061,-0.1705604030,-0.2802615870,0.4667035716,-0.2758339654,9.7219800671
1520500645960631571,-0.0179459365,-0.1714249699,-0.2859226501,0.5111985769,-0.2878288350,9.7052886580
1520500645965646571,-0.0337693142,-0.1647271432,-0.2866537533,0.5280345249,-0.2302714059,9.7004200832
1520500645970663571,-0.0516013654,-0.1562796117,-0.2881794218,0.5184139832,-0.1954955844,9.6725883579
1520500645975678571,-0.0689321794,-0.1475346712,-0.2918681679,0.5136037124,-0.2038891927,9.6342926130
1520500645980694571,-0.0855102926,-0.1425905461,-0.2907173881,0.4847420873,-0.1835015576,9.6287429358
1520500645985710571,-0.1013250101,-0.1321163754,-0.2870908569,0.5364524989,-0.1715141808,9.6607679557
1520500645990726571,-0.1148763603,-0.1181345062,-0.2872294916,0.4775266810,-0.1787044340,9.6288084888
1520500645995742571,-0.1317000054,-0.1076483461,-0.2882003737,0.4931600612,-0.2158790047,9.5880175342
1520500646000758571,-0.1427401314,-0.0965866219,-0.2856604475,0.4582855976,-0.2590453438,9.5302918793
1520500646005773571,-0.1525232341,-0.0846480667,-0.2839278234,0.4198034308,-0.2410552403,9.5236760373
1520500646010790571,-0.1615555569,-0.0724061766,-0.2865231108,0.3813212639,-0.2578402091,9.4822297875
1520500646015805571,-0.1693283904,-0.0566613525,-0.2912584219,0.3476493680,-0.2566384462,9.4883670795
1520500646020823571,-0.1753423517,-0.0409151108,-0.2962675459,0.3260031491,-0.2530393391,9.4211699132
1520500646025838571,-0.1806012717,-0.0240015787,-0.3018102696,0.2971415240,-0.2722233380,9.3935780890
1520500646030853571,-0.1805847628,-0.0079579474,-0.3081811014,0.3235980137,-0.3189918751,9.3259618327
1520500646035870571,-0.1825844075,0.0040062414,-0.3148498685,0.2971415240,-0.2842147423,9.3238611452
1520500646040885571,-0.1838326649,0.0136374640,-0.3207261828,0.3163826074,-0.2878136621,9.3074073569
1520500646045901571,-0.1810535860,0.0279316859,-0.3263038494,0.2863184146,-0.2674259334,9.2879236574
1520500646050918571,-0.1767733122,0.0378579159,-0.3327293003,0.3320159877,-0.2494423861,9.2839748933
1520500646055932571,-0.1734933018,0.0530359579,-0.3418183277,0.3091672012,-0.1918818663,9.2446282666
1520500646060949571,-0.1704755086,0.0574202906,-0.3463898624,0.3320159877,-0.2638320712,9.3316368275
1520500646065965571,-0.1588982931,0.0714163759,-0.3481984448,0.3380288263,-0.1978798162,9.3071089655
1520500646070980571,-0.1548752537,0.0784352181,-0.3570805729,0.2923312532,-0.1714951678,9.2935823047
1520500646075997571,-0.1465784209,0.0857427479,-0.3643451368,0.3741058577,-0.1679041154,9.3183500198
1520500646081013571,-0.1327438244,0.0977051266,-0.3680673026,0.3452442326,-0.1726984293,9.3209599065
1520500646086028571,-0.1254590556,0.0980102928,-0.3721368030,0.3885366702,-0.1894897670,9.2787177128
1520500646091045571,-0.1148976401,0.1035529193,-0.3729258044,0.4137905922,-0.1607123637,9.3377131842
1520500646096061571,-0.1048455536,0.1041418119,-0.3737516649,0.3849289671,-0.1595109754,9.3531008076
1520500646101077571,-0.0967968677,0.1079264054,-0.3713027868,0.3404339617,-0.1547109483,9.3628263690
1520500646106092571,-0.0864917261,0.1085095690,-0.3699647468,0.3608776128,-0.1726996469,9.4079685373
1520500646111108571,-0.0751774335,0.1105434931,-0.3661825453,0.3235980137,-0.1679001817,9.3641652464
1520500646116125571,-0.0671331031,0.1111228569,-0.3637581212,0.3067620657,-0.1619031684,9.4259169001
1520500646121140571,-0.0565763530,0.1125831862,-0.3634960622,0.2730901698,-0.1690953884,9.4471702489
1520500646126157571,-0.0515461972,0.1154982722,-0.3632126199,0.2346080030,-0.1942743402,9.4347857833
1520500646131171571,-0.0462667224,0.1169565340,-0.3629407598,0.2141643518,-0.2002684501,9.4896113818
1520500646136187571,-0.0402312420,0.1189934896,-0.3610425783,0.2129617841,-0.2338442883,9.4606022295
1520500646141204571,-0.0347087876,0.1128692962,-0.3583940720,0.2358105707,-0.2062658381,9.5335680078
1520500646146220571,-0.0332093608,0.1041166962,-0.3541348306,0.2454311124,-0.2098640086,9.5543964665
1520500646151237571,-0.0306992893,0.0971025992,-0.3460764750,0.2586593572,-0.2398435495,9.6124041421
1520500646156251571,-0.0302032584,0.0880509365,-0.3391121308,0.2177720550,-0.2230523991,9.6034885916
1520500646161268571,-0.0302167760,0.0740462685,-0.3324551915,0.2322028675,-0.2218543826,9.6161305451
1520500646166284571,-0.0289619246,0.0673201499,-0.3233100956,0.2610644926,-0.2326488943,9.5798336852
1520500646171299571,-0.0319913810,0.0527300745,-0.3161109100,0.2406208415,-0.2338464425,9.5846824163
1520500646176315571,-0.0317521061,0.0390132472,-0.3080994849,0.2021386747,-0.2626228155,9.5967064818
1520500646181330571,-0.0312553734,0.0296665579,-0.2997846343,0.1865052944,-0.2506301937,9.5247940290
1520500646186346571,-0.0317661217,0.0194489633,-0.2928273155,0.2057463779,-0.2446359901,9.5397087728
1520500646191364571,-0.0320198551,0.0121394850,-0.2836838655,0.1961258361,-0.2554275047,9.5700286801
1520500646196379571,-0.0282505609,0.0074584133,-0.2761511506,0.2322028675,-0.2326466464,9.6196275010
1520500646201395571,-0.0279965923,0.0042299722,-0.2675186026,0.2478362478,-0.2350461448,9.6868820233
1520500646206410571,-0.0272407748,0.0001261175,-0.2583525655,0.2514439509,-0.2038687748,9.7065729525
1520500646211428571,-0.0237242339,-0.0065991149,-0.2492116701,0.2754953052,-0.1930783842,9.7481655097
1520500646216442571,-0.0222154883,-0.0115775562,-0.2397831566,0.2863184146,-0.1822869633,9.7561846478
1520500646221460571,-0.0239651869,-0.0127802050,-0.2262614870,0.2706850343,-0.1954762904,9.7528632444
1520500646226475571,-0.0247038330,-0.0075625309,-0.2162098732,0.2394182738,-0.1750884681,9.7740662883
1520500646231490571,-0.0254526409,-0.0093359000,-0.2070232511,0.2526465187,-0.1618989537,9.7994918369
1520500646236506571,-0.0262017584,-0.0119863365,-0.1967611146,0.2478362478,-0.1690934216,9.7611949227
1520500646241522571,-0.0256842240,-0.0091087159,-0.1832125224,0.2610644926,-0.1690944518,9.7796604704
1520500646246539571,-0.0276891810,-0.0132253085,-0.1697126170,0.2766978729,-0.1319223163,9.7992285023
1520500646251554571,-0.0276881892,-0.0199606604,-0.1573186368,0.2237848935,-0.1211259314,9.8624887743
1520500646256570571,-0.0264211610,-0.0214586114,-0.1419109698,0.2670773312,-0.1235275840,9.9434198077
1520500646261587571,-0.0281739410,-0.0255780192,-0.1273293475,0.2899261178,-0.1247285040,9.9060099745
1520500646266601571,-0.0294203362,-0.0256120193,-0.1148819027,0.2694824666,-0.1091380863,9.9526795172
1520500646271619571,-0.0291584994,-0.0256468856,-0.1018961664,0.2622670604,-0.1031418222,9.9434467492
1520500646276634571,-0.0309052929,-0.0242248884,-0.0891661268,0.2093540810,-0.1199256671,9.9091138238
1520500646281650571,-0.0334003101,-0.0196023273,-0.0747869577,0.2297977321,-0.1463083486,9.9089405633
1520500646286665571,-0.0343840529,-0.0103075535,-0.0638921163,0.2310002998,-0.1343170380,9.8519721111
1520500646291682571,-0.0343706412,-0.0030345953,-0.0595078048,0.2177720550,-0.1307185865,9.9195017080
1520500646296698571,-0.0366141753,0.0048071342,-0.0502450205,0.2261900290,-0.1654943144,9.9566422900
1520500646301714571,-0.0350817151,0.0176046059,-0.0412219905,0.1732770496,-0.1594944912,9.9327464428
1520500646306728571,-0.0338094766,0.0269192051,-0.0373655429,0.1516308308,-0.1475014011,9.9143511371
1520500646311745571,-0.0342991016,0.0341934233,-0.0335213898,0.2310002998,-0.1990706209,9.8996831575
1520500646316762571,-0.0257374368,0.0449685287,-0.0299379076,0.2418234092,-0.1630972511,9.8797862846
1520500646321778571,-0.0209463129,0.0539894795,-0.0247374876,0.2887235500,-0.1726940273,9.9165277487
1520500646326794571,-0.0141503419,0.0589318346,-0.0195719247,0.3067620657,-0.1810894151,10.0011968669
1520500646331810571,-0.0053351005,0.0676505928,-0.0097819152,0.2899261178,-0.1367199082,10.0071281919
1520500646336824571,0.0032245335,0.0743346599,-0.0019008218,0.2827107115,-0.0695674825,10.0966180237
1520500646341842571,0.0107741384,0.0795708802,0.0024539263,0.2923312532,-0.0755639339,10.1128002453
1520500646346857571,0.0210884695,0.0848067266,0.0073446323,0.3223954460,-0.0240032372,10.1868345504
1520500646351873571,0.0301477569,0.0906226645,0.0130537558,0.2754953052,-0.0084107590,10.1896001341
1520500646356888571,0.0341788253,0.0952732805,0.0179516837,0.2526465187,0.0539463226,10.2943546804
1520500646361904571,0.0364545812,0.1010814610,0.0255672300,0.2273925967,0.0887233617,10.2713236966
1520500646366921571,0.0369657920,0.1036873648,0.0318088600,0.2502413832,0.0971155651,10.4035775260
1520500646371938571,0.0410153295,0.1185211421,0.0424660597,0.1720744819,0.1223036019,10.3520173206
1520500646376953571,0.0375022816,0.1179173271,0.0497728868,0.1432128568,0.1690723263,10.4022248277
1520500646381970571,0.0349999372,0.1246130876,0.0517225063,0.0915024451,0.2386264982,10.4061467553
1520500646386984571,0.0294843787,0.1315924954,0.0561148626,0.0121329761,0.2782043137,10.3185577603
1520500646392001571,0.0217022107,0.1377092467,0.0559054699,-0.0708441961,0.3669471676,10.3866832275
1520500646397016571,0.0184451857,0.1467488999,0.0530044481,-0.1321751495,0.4053244378,10.4360528126
1520500646402033571,0.0104012945,0.1461680793,0.0511211158,-0.1081237952,0.4388984965,10.4020837953
1520500646407047571,0.0051168996,0.1438480473,0.0462433062,-0.1069212275,0.4580846496,10.4729441620
1520500646412064571,0.0005860915,0.1406512433,0.0424396107,-0.1081237952,0.4904615347,10.5356800684
1520500646417081571,-0.0021853582,0.1386250372,0.0370182651,-0.0924904150,0.5180405468,10.5285281442
1520500646422096571,-0.0039518360,0.1351364749,0.0337483044,-0.1165417692,0.5312329647,10.5717487089
1520500646427112571,-0.0009452160,0.1319477236,0.0280367860,-0.1021109567,0.5252361387,10.6088027014
1520500646432128571,0.0050749239,0.1278889139,0.0212308141,-0.0600210867,0.5072457542,10.6188698601
1520500646437143571,0.0123505895,0.1229557145,0.0146863851,-0.0624262221,0.5180382053,10.5956398671
1520500646442161571,0.0191226461,0.1174402776,0.0078678976,-0.0576159513,0.5156395498,10.5921089537
1520500646447176571,0.0301756272,0.1189219283,0.0002831921,-0.0744518993,0.5156408611,10.5852999608
1520500646452192571,0.0409773566,0.1215741178,-0.0091859756,-0.0335645970,0.5096419745,10.5651513883
1520500646457207571,0.0517865661,0.1300554546,-0.0191517734,-0.0395774356,0.5672011832,10.5837480886
1520500646462224571,0.0638482670,0.1359162798,-0.0296810043,-0.0095132428,0.5971773522,10.4892925684
1520500646467239571,0.0756538312,0.1388660750,-0.0413141830,0.0397920335,0.6367451462,10.5259626794
1520500646472255571,0.0811886194,0.1473358747,-0.0477530829,0.0277663563,0.6043692913,10.4133833386
1520500646477271571,0.0849587291,0.1520184432,-0.0547587077,0.0698562263,0.6271496813,10.3978435728
1520500646482287571,0.0879799566,0.1599037608,-0.0609268407,0.1239717734,0.6643188197,10.3821727243
1520500646487302571,0.0899945813,0.1669152594,-0.0673703219,0.1059332577,0.7122858415,10.3032757377
1520500646492320571,0.0884971343,0.1771247820,-0.0716184479,0.1167563671,0.7554540538,10.3077768718
1520500646497336571,0.0885062022,0.1855829461,-0.0745299833,0.1468205599,0.7326680443,10.2726421442
1520500646502352571,0.0862566582,0.1954935045,-0.0760734733,0.1408077214,0.7530538998,10.2796536544
1520500646507366571,0.0865206318,0.2062813863,-0.0784265989,0.1468205599,0.7674431166,10.2877161048
1520500646512383571,0.0825068876,0.2106469368,-0.0770330556,0.1335923151,0.7230759512,10.3680760588
1520500646517398571,0.0797483204,0.2150173501,-0.0772651212,0.0854896066,0.7482616465,10.3650332730
1520500646522415571,0.0749768103,0.2173465557,-0.0772384688,0.0963127160,0.7158840121,10.4137695458
1520500646527431571,0.0679400903,0.2167595730,-0.0766887549,0.1047306900,0.7398661649,10.4438799664
1520500646532447571,0.0634187774,0.2176290407,-0.0755915011,0.0578305492,0.7158870092,10.4269276911
1520500646537462571,0.0571334056,0.2164654118,-0.0772120007,0.0193483823,0.7182882872,10.4517049372
1520500646542479571,0.0511003832,0.2141276020,-0.0755953087,0.0542228460,0.7170864306,10.5083117137
1520500646547494571,0.0423003060,0.2112124961,-0.0764128419,0.0482100075,0.7458662691,10.5246121902
1520500646552511571,0.0317327786,0.2024704673,-0.0778126616,0.0470074397,0.7722474520,10.5164631621
1520500646557525571,0.0174024060,0.1963392244,-0.0753978301,0.0746664971,0.8226091956,10.5312527050
1520500646562543571,0.0008095520,0.1896243263,-0.0729832442,0.0770716326,0.8142150254,10.5079946011
1520500646567559571,-0.0162924075,0.1794184445,-0.0727587691,0.0710587940,0.8082197915,10.4929511017
1520500646572574571,-0.0351528864,0.1697953709,-0.0727971267,0.0878947420,0.8465909739,10.4555612055
1520500646577590571,-0.0572799012,0.1592917648,-0.0709422648,0.0518177106,0.8681783113,10.4175405586
1520500646582605571,-0.0794113539,0.1476320902,-0.0726133920,0.0373868980,0.8765734182,10.3839706593
1520500646587621571,-0.1068167378,0.1385935372,-0.0745252561,0.0758690649,0.8873626848,10.3405862471
1520500646592638571,-0.1299561145,0.1246009357,-0.0756712092,0.0686536586,0.8885623872,10.2500080797
1520500646597654571,-0.1528448038,0.1117812551,-0.0795141957,0.0566279814,0.8957581664,10.2199023714
1520500646602670571,-0.1795018387,0.0972001356,-0.0790347855,0.0626408200,0.8705757492,10.1327076057
1520500646607684571,-0.2071643708,0.0846685120,-0.0823255893,0.1047306900,0.8801655945,10.0683706565
1520500646612701571,-0.2313138276,0.0665939480,-0.0826891611,0.1203640702,0.8501858663,10.0229241100
1520500646617718571,-0.2559671130,0.0479378749,-0.0835973374,0.0878947420,0.8334004292,9.9546900240
1520500646622734571,-0.2788631963,0.0287033641,-0.0858659563,0.1287820442,0.8297998235,9.8880533547
1520500646627749571,-0.2964853522,0.0053842532,-0.0854700408,0.1468205599,0.8226035760,9.7914268467
1520500646632765571,-0.3138546254,-0.0167692212,-0.0850656995,0.1347948828,0.7866302999,9.7264989160
1520500646637780571,-0.3292188280,-0.0415385412,-0.0868494670,0.1600488048,0.7662429459,9.6763007986
1520500646642797571,-0.3393054023,-0.0657215678,-0.0891796814,0.1540359662,0.7506545887,9.6403480627
1520500646647813571,-0.3478762213,-0.0843691544,-0.0909293656,0.2033412424,0.7374602040,9.5829359643
1520500646652829571,-0.3491572181,-0.1012648503,-0.0929497922,0.2273925967,0.6918909947,9.4909369257
1520500646657844571,-0.3519505358,-0.1201950011,-0.0971473472,0.2670773312,0.6739007975,9.4336231452
1520500646662861571,-0.3504679472,-0.1367945872,-0.1005234142,0.2598619249,0.6271348830,9.3988746611
1520500646667878571,-0.3462186094,-0.1522304660,-0.1028135392,0.3248005814,0.5623762425,9.3099827919
1520500646672892571,-0.3412149713,-0.1644477078,-0.1099504365,0.3344211231,0.5252021401,9.2738989384
1520500646677909571,-0.3334443214,-0.1757948121,-0.1151919773,0.3873341025,0.4928212276,9.2699290562
1520500646682924571,-0.3236608620,-0.1856856629,-0.1198850446,0.4294239725,0.4376574900,9.1661423569
1520500646687940571,-0.3118599317,-0.1915014417,-0.1226569013,0.4763241133,0.3693028332,9.1506446406
1520500646692957571,-0.2990485723,-0.1941145107,-0.1243239873,0.4835395195,0.3249340755,9.1215640770
1520500646697973571,-0.2837164779,-0.1897275389,-0.1281067537,0.4450573527,0.3201405110,9.0487282470
1520500646702989571,-0.2663710408,-0.1815444964,-0.1345698127,0.4667035716,0.2673766465,9.0067318246
1520500646708003571,-0.2490228319,-0.1713217621,-0.1410173101,0.4727164101,0.2134148591,9.0322930866
1520500646713021571,-0.2319226248,-0.1596465743,-0.1458299500,0.4366393787,0.2146168093,8.9838330228
1520500646718037571,-0.2148227627,-0.1456286554,-0.1549535396,0.4198034308,0.2002284355,8.9514708950
1520500646723052571,-0.1974724368,-0.1319005656,-0.1646209107,0.4727164101,0.2026225953,8.9823314206
1520500646728068571,-0.1811218529,-0.1149712821,-0.1729092316,0.4498676236,0.2086200769,8.9186300525
1520500646733084571,-0.1642600896,-0.0907528178,-0.1827661841,0.4149931599,0.2326056016,8.9015139530
1520500646738099571,-0.1501637189,-0.0694587515,-0.1891231369,0.4775266810,0.2098170632,8.8439824538
1520500646743116571,-0.1348116500,-0.0502104404,-0.1930630718,0.4847420873,0.2218079055,8.9008455838
1520500646748130571,-0.1174574155,-0.0362026211,-0.1983994855,0.5196165509,0.2146103468,8.9109724488
1520500646753147571,-0.1043696352,-0.0201662534,-0.2001953067,0.5496807438,0.1978200394,9.0083162853
1520500646758163571,-0.0943011027,-0.0105582806,-0.1958118795,0.5677192594,0.2134074600,9.0499626904
1520500646763181571,-0.0827303637,-0.0047362592,-0.1920012445,0.6110116971,0.2289929137,9.0564989706
1520500646768196571,-0.0731676435,0.0013698033,-0.1857497396,0.6074039940,0.2445820202,9.1332203854
1520500646773211571,-0.0658698276,0.0039732663,-0.1776268899,0.6434810254,0.2949431082,9.2002244708
1520500646778227571,-0.0580629492,0.0103605545,-0.1678527982,0.5593012855,0.3561058260,9.1835520291
1520500646783243571,-0.0502592816,0.0147096079,-0.1586353599,0.5039831707,0.4112705938,9.1817123842
1520500646788259571,-0.0497474553,0.0176061677,-0.1521209610,0.5641115563,0.4712229320,9.2205815589
1520500646793275571,-0.0426925838,0.0245722875,-0.1409882935,0.4811343841,0.4664328328,9.2260424609
1520500646798291571,-0.0381529862,0.0306669112,-0.1312103574,0.4618933007,0.5012094037,9.2680330133
1520500646803306571,-0.0386392750,0.0376373616,-0.1227691472,0.3680930191,0.5240003772,9.2910045254
1520500646808322571,-0.0383792336,0.0393646427,-0.1149104444,0.3452442326,0.5240021567,9.3353883918
1520500646813339571,-0.0391226666,0.0443055010,-0.1102719716,0.2201771904,0.5276093186,9.3714665282
1520500646818354571,-0.0446482103,0.0445859783,-0.1070129298,0.1973284039,0.4988317280,9.3484741094
1520500646823370571,-0.0466526694,0.0460290016,-0.1021282545,0.1756821850,0.4856428692,9.3719405422
1520500646828386571,-0.0516763643,0.0454340654,-0.0983357236,0.1973284039,0.4592600940,9.4205656227
1520500646833403571,-0.0599693237,0.0416260635,-0.0921266663,0.1516308308,0.4616619340,9.4326295157
1520500646838418571,-0.0649960609,0.0363580484,-0.0843115164,0.1456179922,0.4496709980,9.3838896883
1520500646843433571,-0.0758004365,0.0293241646,-0.0708175065,0.1660616433,0.4316822995,9.3941675381
1520500646848450571,-0.0840932705,0.0231741602,-0.0605680454,0.1540359662,0.3945098829,9.4338337326
1520500646853467571,-0.0928884395,0.0167303889,-0.0495082362,0.0794767680,0.3597406176,9.3625404318
1520500646858482571,-0.1009302451,0.0079470957,-0.0352210612,0.0433997366,0.3525485848,9.3628985995
1520500646863498571,-0.1079696194,0.0000514616,-0.0257989099,0.0001072989,0.3693399225,9.3528443152
1520500646868514571,-0.1167691870,-0.0093046980,-0.0153024233,-0.0203363522,0.3117827744,9.3565858613
1520500646873530571,-0.1220524176,-0.0195314475,-0.0056307779,-0.0888827118,0.2578267940,9.3666028214
1520500646878546571,-0.1265850017,-0.0300398166,0.0005201477,-0.1057186598,0.2446375606,9.3435366758
1520500646883562571,-0.1328708283,-0.0370559028,0.0080537468,-0.1333777172,0.2206569063,9.3182621119
1520500646888577571,-0.1346360478,-0.0461099084,0.0155633833,-0.1550239360,0.2158620304,9.2894238814
1520500646893594571,-0.1356453439,-0.0525360588,0.0211978061,-0.1995189414,0.1882852661,9.2747759919
1520500646898611571,-0.1356475471,-0.0554557316,0.0233399425,-0.2319882697,0.1703006886,9.2146780829
1520500646903626571,-0.1356496603,-0.0574976085,0.0241360185,-0.2596473271,0.1607097194,9.1812544793
1520500646908642571,-0.1354027601,-0.0604098985,0.0235722292,-0.2416088114,0.1199375401,9.1939022444
1520500646913657571,-0.1323856805,-0.0601209747,0.0249215811,-0.1959112383,0.0959511725,9.1539679446
1520500646918673571,-0.1301290053,-0.0633231331,0.0240812889,-0.1971138060,0.0743667386,9.1412171143
1520500646923688571,-0.1261112153,-0.0653605210,0.0237877139,-0.1814804257,0.1091405933,9.1584631970
1520500646928704571,-0.1215881461,-0.0662358161,0.0248548272,-0.1466059620,0.1307224048,9.1615891342
1520500646933721571,-0.1185725640,-0.0676981132,0.0272730241,-0.1177443369,0.1355167186,9.1647899673
1520500646938736571,-0.1140530585,-0.0711958690,0.0283201297,-0.1345802849,0.1654965404,9.1695731804
1520500646943753571,-0.1067698421,-0.0767395179,0.0320519986,-0.0816673055,0.1726872619,9.1516189826
1520500646948769571,-0.1024996204,-0.0820002480,0.0384971503,-0.0443877064,0.1966671670,9.1663406105
1520500646953785571,-0.0974790187,-0.0887125063,0.0430359651,-0.0071081073,0.1942659827,9.2066551308
1520500646958800571,-0.0906961183,-0.0948493192,0.0505519639,0.0217535178,0.1798740497,9.1947668020
1520500646963817571,-0.0841639092,-0.1036225314,0.0631887936,0.0542228460,0.1702783975,9.1688929532
1520500646968834571,-0.0811457907,-0.1088983224,0.0750471968,0.1011229868,0.1343005321,9.1847415515
1520500646973849571,-0.0713411572,-0.1150543498,0.0901328800,0.1215666379,0.1211083952,9.1148267910
1520500646978864571,-0.0642923702,-0.1174343879,0.1093107856,0.1624539402,0.0659447513,9.0877532978
1520500646983881571,-0.0572416073,-0.1198209819,0.1309236044,0.1167563671,0.0335715189,9.0975268137
1520500646988896571,-0.0469199099,-0.1184146549,0.1512065263,0.1323897474,-0.0371789836,9.0962814950
1520500646993913571,-0.0355871169,-0.1108808463,0.1685582614,0.0975152837,-0.0719513398,9.0699255416
1520500646998929571,-0.0270177759,-0.1030581930,0.1864584452,0.0818819034,-0.1331062838,9.0527051843
1520500647003944571,-0.0139253619,-0.0946473563,0.2030019447,0.0770716326,-0.1690801218,9.0458142210
1520500647008960571,-0.0015813871,-0.0815717488,0.2185002302,0.0349817626,-0.2062501969,9.0265037002
1520500647013977571,0.0084979149,-0.0676090337,0.2288690134,-0.0275517585,-0.2482152414,9.0585311768
1520500647018992571,0.0198403952,-0.0498629264,0.2411581844,-0.0732493316,-0.2733936312,9.0578383811
1520500647024009571,0.0299266912,-0.0312402441,0.2523741746,-0.1141366338,-0.3177586424,9.0373610274
1520500647029024571,0.0400079808,-0.0128936493,0.2579064780,-0.1466059620,-0.3117604115,9.0969405589
1520500647034040571,0.0475683668,0.0010877489,0.2609751892,-0.2067343477,-0.3321411157,9.1231128575
1520500647039055571,0.0556284454,0.0124446981,0.2648345970,-0.2307857020,-0.3573211914,9.1965865839
1520500647044072571,0.0626780087,0.0211846200,0.2665114966,-0.2367985405,-0.3453293188,9.2721727728
1520500647049088571,0.0674644713,0.0275867523,0.2703391793,-0.2091394831,-0.3069589795,9.3230004716
1520500647054104571,0.0714910547,0.0299106626,0.2735960472,-0.2079369154,-0.3069590731,9.4240952906
1520500647059119571,0.0740057523,0.0287351826,0.2776406760,-0.2031266446,-0.2649895329,9.4948983247
1520500647064135571,0.0767731953,0.0266769063,0.2849247197,-0.2019240768,-0.1750540948,9.5703382762
1520500647069152571,0.0785281393,0.0190812017,0.2924389375,-0.1790752903,-0.1270902574,9.7025535173
1520500647074168571,0.0790249621,0.0106123081,0.2994077279,-0.2007215091,-0.0887160780,9.7050510774
1520500647079184571,0.0787694292,0.0036014986,0.3058479420,-0.1935061029,0.0024180322,9.7595127431
1520500647084200571,0.0757455633,-0.0057385563,0.3111933219,-0.1802778580,0.0743654273,9.8615824951
1520500647089214571,0.0729690366,-0.0179923581,0.3165160042,-0.1562265037,0.1211300307,9.9531121622
1520500647094231571,0.0691902157,-0.0290853862,0.3234727211,-0.1357828526,0.1918777234,9.9702763445
1520500647099247571,0.0659098604,-0.0419206971,0.3282507989,-0.1273648786,0.2182581571,10.0038708583
1520500647104261571,0.0603664042,-0.0570937977,0.3351796596,-0.0804647378,0.2854063681,10.0998068263
1520500647109279571,0.0560843231,-0.0696483159,0.3437494699,-0.0419825710,0.3369664092,10.1702727641
1520500647114295571,0.0507946317,-0.0821952152,0.3493451423,-0.0335645970,0.3213769281,10.2201782202
1520500647119311571,0.0442507749,-0.0941649368,0.3568414157,-0.0203363522,0.3477569871,10.2758066489
1520500647124326571,0.0399673805,-0.1052516059,0.3613641529,-0.0191337845,0.3309689275,10.3257835046
1520500647129342571,0.0324219390,-0.1134286234,0.3669973721,-0.0203363522,0.3333673020,10.3746029171
1520500647134359571,0.0286455880,-0.1204320700,0.3701975696,-0.0311594616,0.3045887748,10.3840334784
1520500647139373571,0.0221058751,-0.1262688763,0.3726001558,-0.0552108159,0.2710147161,10.3994081924
1520500647144390571,0.0158180805,-0.1303514495,0.3728512466,-0.0624262221,0.2374393463,10.4215918994
1520500647149407571,0.0107903867,-0.1321039111,0.3736588802,-0.1309725818,0.1810850850,10.4664755168
1520500647154421571,0.0100359649,-0.1315170668,0.3720414512,-0.1826829934,0.1355217763,10.4751582768
1520500647159438571,0.0065186673,-0.1285944019,0.3682825736,-0.2019240768,0.0923542196,10.5125762604
1520500647164454571,0.0009952485,-0.1218816120,0.3634741464,-0.2560396239,0.0383971152,10.4678319940
1520500647169470571,-0.0035213011,-0.1131250945,0.3573266843,-0.2355959728,0.0300015400,10.4571818978
1520500647174486571,-0.0070315536,-0.1029083467,0.3501062873,-0.3053449002,0.0108207255,10.4660145082
1520500647179501571,-0.0133077634,-0.0932725374,0.3418043944,-0.2704704365,-0.0203596416,10.4285168579
1520500647184516571,-0.0180679552,-0.0783948579,0.3348924462,-0.2584447593,-0.0191614378,10.4411822215
1520500647189532571,-0.0238321544,-0.0626434187,0.3279890341,-0.3125603064,-0.0395426103,10.3824594861
1520500647194548571,-0.0285961294,-0.0503874716,0.3207865323,-0.2969269262,-0.0527343725,10.3125915458
1520500647199565571,-0.0303428444,-0.0360870091,0.3122412618,-0.2800909782,-0.0443417008,10.2705823073
1520500647204581571,-0.0330952879,-0.0241267579,0.3069266244,-0.2247728634,-0.0467442900,10.3595312979
1520500647209597571,-0.0303172205,-0.0104145766,0.3010739657,-0.2151523217,-0.0359527755,10.3768592927
1520500647214613571,-0.0257777326,0.0038759639,0.2971163074,-0.1826829934,0.0060146105,10.4055559282
1520500647219629571,-0.0214952163,0.0149655467,0.2915113866,-0.0936929827,0.0527741562,10.4534541958
1520500647224646571,-0.0149494268,0.0272215537,0.2859111575,-0.0155260813,0.0755517364,10.5514533858
1520500647229661571,0.0011489801,0.0441536526,0.2765411198,0.0229560855,0.1606877093,10.5846979756
1520500647234676571,0.0169960411,0.0599150158,0.2690564778,0.0650459554,0.2146457503,10.6841800584
1520500647239692571,0.0366150936,0.0780111174,0.2607709819,0.1480231276,0.2506135004,10.7089044963
1520500647244709571,0.0625205804,0.1004870042,0.2500722511,0.2310002998,0.2865812506,10.7638446771
1520500647249724571,0.0871738855,0.1264604698,0.2388614392,0.2803055761,0.3297464658,10.7819169768
1520500647254739571,0.1168511482,0.1527353019,0.2246675111,0.3524596388,0.3753081823,10.7858188144
1520500647259757571,0.1485429297,0.1792899228,0.2150713524,0.4414496496,0.3812969535,10.7686767781
1520500647264773571,0.1812434702,0.2084673983,0.2054933347,0.5136037124,0.3728973510,10.7435776371
1520500647269789571,0.2164527296,0.2338549457,0.1969639332,0.6386707545,0.3189262913,10.7435750754
1520500647274804571,0.2471305065,0.2501939604,0.1935143891,0.7132299527,0.3057299397,10.8741844915
1520500647279821571,0.2800773120,0.2688510973,0.1952188012,0.7444967133,0.2529653259,10.7716629430
1520500647284836571,0.3102409535,0.2726421696,0.1984382452,0.7661429321,0.2709507464,10.7702725679
1520500647289852571,0.3318557734,0.2738110759,0.2003008206,0.7986122603,0.2073937751,10.7839642338
1520500647294868571,0.3574911511,0.2735188073,0.2043091802,0.7757634738,0.2002007121,10.7528157592
1520500647299884571,0.3720604458,0.2653489971,0.2104424195,0.7360787393,0.1294545179,10.7149202666
1520500647304899571,0.3818543099,0.2548382272,0.2195427467,0.6470887285,0.0503181808,10.6868100183
1520500647309916571,0.3893780871,0.2402566575,0.2250990545,0.5713269626,-0.0000398164,10.6108950481
1520500647314931571,0.3913711337,0.2239238861,0.2309228377,0.5196165509,-0.0887721803,10.5289726759
1520500647319947571,0.3903388287,0.2008902744,0.2358894528,0.4402470819,-0.1475238795,10.4728574535
1520500647324965571,0.3812638243,0.1796134742,0.2365556073,0.3741058577,-0.2206662941,10.3701417493
1520500647329980571,0.3664071904,0.1583402370,0.2350681293,0.3115723366,-0.2854150066,10.2243834184
1520500647334996571,0.3573267798,0.1350324863,0.2324721715,0.2670773312,-0.3981307410,10.1354413389
1520500647340011571,0.3419719038,0.1169642820,0.2310100808,0.2261900290,-0.4568854373,10.0754651228
1520500647345027571,0.3210814205,0.0959902644,0.2257483847,0.1877078622,-0.4940557933,9.9759315540
1520500647350044571,0.2996923971,0.0817346480,0.2143161973,0.1335923151,-0.4940515786,9.9171889399
1520500647355058571,0.2795617575,0.0680586507,0.2042388520,0.1311871796,-0.4928522509,9.8358611039
1520500647360075571,0.2538996034,0.0549756398,0.1895769406,0.1444154245,-0.4712687535,9.8333870123
1520500647365091571,0.2294966760,0.0456891327,0.1719655908,0.1299846119,-0.4748650508,9.8184231096
1520500647370107571,0.2043380918,0.0349446793,0.1546150716,0.2105566487,-0.4580833601,9.8187846440
1520500647375123571,0.1786734835,0.0236260010,0.1340144890,0.2718876021,-0.4113216603,9.8820599994
1520500647380139571,0.1520014766,0.0093872562,0.1155579096,0.3512570711,-0.3777519100,9.9044976032
1520500647385155571,0.1270918116,-0.0045688845,0.1006173828,0.4775266810,-0.3333935486,9.9601703605
1520500647390170571,0.1034340577,-0.0246559914,0.0902271178,0.5893654783,-0.2782417995,9.9346229776
1520500647395187571,0.0772662127,-0.0450463937,0.0838974855,0.7144325204,-0.2039048339,9.9147388494
1520500647400203571,0.0546207304,-0.0625223009,0.0778540958,0.8238661823,-0.1295666507,9.9810055396
1520500647405218571,0.0352416860,-0.0829224283,0.0761111421,0.9525409276,-0.1127887064,10.0053038948
1520500647410234571,0.0218999646,-0.1018771103,0.0795084745,1.0222898549,-0.0672268026,10.0045805666
1520500647415251571,0.0090629500,-0.1202531969,0.0845325951,1.0992541886,0.0059147690,9.9863279540
1520500647420267571,-0.0015134768,-0.1400882338,0.0906235833,1.1605851419,0.0346893625,9.9961622276
1520500647425283571,-0.0050566099,-0.1599103160,0.0929138606,1.2411571787,0.0682590192,9.9965073913
1520500647430299571,-0.0050788309,-0.1773984866,0.0946742968,1.2892598872,0.0694544132,10.0111458911
1520500647435314571,-0.0035884171,-0.1905116565,0.0951125494,1.3060958352,0.1042281742,10.0307045567
1520500647440330571,0.0031849880,-0.2007147409,0.0977275989,1.3325523249,0.1162175179,10.0594889509
1520500647445346571,0.0102143612,-0.2053719513,0.0968673235,1.3794524657,0.0958284780,10.0090801424
1520500647450363571,0.0215252706,-0.2042048964,0.0979373969,1.3950858460,0.1114160859,9.9635891611
1520500647455377571,0.0340910981,-0.2012759304,0.0941486491,1.4492013930,0.0850307819,9.9212509766
1520500647460394571,0.0484208120,-0.1951425021,0.0909221799,1.4095166585,0.0658476259,9.8391437322
1520500647465410571,0.0647671226,-0.1834676097,0.0861109402,1.3770473303,0.0286768016,9.7767402447
1520500647470426571,0.0793561448,-0.1706285967,0.0815824057,1.3950858460,0.0130865712,9.7138240967
1520500647475442571,0.0924411141,-0.1548756008,0.0768083566,1.3710344917,0.0178850061,9.6803513458
1520500647480456571,0.1047746568,-0.1350333188,0.0682791883,1.3433754343,0.0046966156,9.6655255535
1520500647485473571,0.1173592357,-0.1148973686,0.0589401387,1.3301471895,-0.0048954775,9.6203400496
1520500647490488571,0.1289369491,-0.0953416675,0.0485163262,1.2880573195,0.0070992048,9.6265487529
1520500647495506571,0.1387607653,-0.0708280196,0.0362397519,1.2567905590,0.0238896059,9.5989452587
1520500647500521571,0.1440621239,-0.0466118990,0.0255926310,1.2748290747,0.0346804648,9.5731919919
1520500647505536571,0.1450871370,-0.0247248863,0.0135829302,1.3121086738,0.0862405996,9.5623195579
1520500647510553571,0.1423463175,-0.0008025724,0.0026779754,1.3517934083,0.0802418067,9.5607769938
1520500647515569571,0.1388576664,0.0251482114,-0.0041518292,1.4023012522,0.0418653794,9.5568363684
1520500647520584571,0.1298365717,0.0490607796,-0.0123396569,1.3662242209,0.0610544360,9.5618173865
1520500647525601571,0.1200571817,0.0700606640,-0.0210894072,1.3926807105,0.0874334648,9.5824527410
1520500647530616571,0.1065098030,0.0913468140,-0.0284772040,1.4167320648,0.0646479235,9.5531872584
1520500647535633571,0.0891893311,0.1088383892,-0.0339930787,1.4275551742,0.0178806041,9.5345332139
1520500647540648571,0.0711123243,0.1248749318,-0.0403303065,1.4455936899,0.0094852162,9.5529601267
1520500647545665571,0.0472585612,0.1406061704,-0.0423302883,1.4540116639,-0.0120999670,9.6110064371
1520500647550681571,0.0236513061,0.1545972131,-0.0473200803,1.4239474711,-0.0073010638,9.6054836664
1520500647555695571,-0.0029741263,0.1683029741,-0.0550119536,1.3758447626,-0.0144921600,9.5873645814
1520500647560713571,-0.0293509885,0.1796763005,-0.0621809865,1.3433754343,-0.0132904907,9.6190573354
1520500647565728571,-0.0572363885,0.1916369042,-0.0712365942,1.3265394863,-0.0372719880,9.6459739039
1520500647570744571,-0.0873881393,0.2009778032,-0.0816607386,1.3590088146,-0.0480667806,9.6793705661
1520500647575761571,-0.1160364136,0.2053577433,-0.0891494709,1.3566036791,-0.0576597167,9.6701061793
1520500647580774571,-0.1451853959,0.2103166133,-0.0952800942,1.3493882729,-0.0828411036,9.6829845493
1520500647585791571,-0.1718280310,0.2112007267,-0.1027992374,1.3277420540,-0.0528609071,9.6901388705
1520500647590808571,-0.1984660480,0.2149965000,-0.1094845120,1.3012855644,-0.0780407955,9.6741509225
1520500647595824571,-0.2218431196,0.2144227854,-0.1162092003,1.3085009706,-0.0684482341,9.6380448749
1520500647600840571,-0.2437189060,0.2103588746,-0.1251277331,1.2796393455,-0.0660477054,9.6162427224
1520500647605855571,-0.2678586245,0.2051307249,-0.1348625955,1.2411571787,-0.0756378317,9.6038430555
1520500647610871571,-0.2869660388,0.2016397397,-0.1397236277,1.2074852827,-0.0720377879,9.6239237362
1520500647615888571,-0.3018035723,0.1966942340,-0.1448742555,1.1810287931,-0.0480529189,9.5916178300
1520500647620903571,-0.3143802475,0.1929231653,-0.1529961963,1.2351443401,-0.0576502570,9.5748304418
1520500647625920571,-0.3249483395,0.1865245961,-0.1589775115,1.2387520433,-0.0780359252,9.5120594319
1520500647630935571,-0.3297356017,0.1766127378,-0.1579620451,1.2820444809,-0.0408659438,9.4767374817
1520500647635951571,-0.3337677757,0.1690388069,-0.1593651072,1.3265394863,-0.0180857412,9.5146329276
1520500647640967571,-0.3360433630,0.1605957823,-0.1624013810,1.3277420540,-0.0108909923,9.5262356461
1520500647645983571,-0.3358016144,0.1524320150,-0.1605702728,1.3686293563,0.0646516699,9.5385475893
1520500647650998571,-0.3317919671,0.1431041863,-0.1587550579,1.4023012522,0.1282034899,9.5276985772
1520500647656014571,-0.3245123144,0.1349380768,-0.1550431967,1.4371757159,0.1234042121,9.4994723530
1520500647661032571,-0.3159781865,0.1270718567,-0.1543074509,1.4864809921,0.1329934954,9.4827130756
1520500647666046571,-0.3034216544,0.1186164302,-0.1506076140,1.4588219347,0.1401904921,9.4701916924
1520500647671063571,-0.2891057638,0.1113316015,-0.1485254272,1.4936963984,0.1341920738,9.4838038199
1520500647676079571,-0.2735368095,0.1020097587,-0.1472727733,1.5417991069,0.1701625402,9.4763276737
1520500647681095571,-0.2562114449,0.0915267092,-0.1473850083,1.5417991069,0.1833530848,9.5053684098
1520500647686110571,-0.2376317895,0.0781244792,-0.1453574405,1.5502170809,0.2133309398,9.4622579146
1520500647691126571,-0.2170409476,0.0667692844,-0.1457529581,1.5430016747,0.2529031357,9.5355046259
1520500647696142571,-0.1951920668,0.0583364399,-0.1491045832,1.5321785652,0.2684928041,9.5332704821
1520500647701158571,-0.1725943038,0.0467008463,-0.1532937002,1.5574324872,0.3092616117,9.5329849184
1520500647706174571,-0.1492473528,0.0312760923,-0.1569720256,1.5790787060,0.3224504705,9.5408963723
1520500647711190571,-0.1248906744,0.0193490749,-0.1608960868,1.6079403312,0.3164525205,9.4883248197
1520500647716206571,-0.1005320201,0.0074155016,-0.1623852349,1.6692712845,0.3164477439,9.5156193167
1520500647721222571,-0.0779313168,-0.0048152444,-0.1619795178,1.7005380451,0.3116487470,9.5850482999
1520500647726238571,-0.0535733251,-0.0182101109,-0.1618565060,1.6692712845,0.3356339906,9.5713835171
1520500647731254571,-0.0327279304,-0.0278198138,-0.1611569682,1.6788918262,0.3512220668,9.5247889171
1520500647736269571,-0.0106287662,-0.0382980789,-0.1623602545,1.6861072325,0.3584163474,9.5990888838
1520500647741286571,0.0132362211,-0.0438221179,-0.1635290154,1.6440173625,0.3668136085,9.5936796556
1520500647746302571,0.0350900298,-0.0484662351,-0.1671222863,1.5959146540,0.4231769548,9.6161736340
1520500647751318571,0.0514190043,-0.0501979447,-0.1709536044,1.6608533105,0.3943925270,9.6725146789
1520500647756332571,0.0689998548,-0.0548408219,-0.1756211246,1.6307891177,0.4303690812,9.6936908163
1520500647761350571,0.0843271035,-0.0562917387,-0.1756607102,1.6500302011,0.4447572677,9.6958137912
1520500647766365571,0.0968884030,-0.0553966369,-0.1816293868,1.6632584460,0.4471545183,9.7247362958
1520500647771380571,0.1061804849,-0.0565439635,-0.1870664658,1.7101585868,0.4471508656,9.7266040865
1520500647776398571,0.1132159309,-0.0562454517,-0.1887005863,1.7426279150,0.4423517751,9.7414005987
1520500647781413571,0.1162244405,-0.0588550760,-0.1930549291,1.6957277742,0.4471519895,9.7511495702
1520500647786428571,0.1210003492,-0.0582718932,-0.1925182589,1.7137662899,0.4627394101,9.8148767104
1520500647791445571,0.1199950677,-0.0576866042,-0.1935941294,1.8135794101,0.4723247597,9.8104094042
1520500647796461571,0.1139615631,-0.0597301157,-0.1930573979,1.7835152172,0.4723271012,9.8188370383
1520500647801477571,0.1089399853,-0.0568196964,-0.1924847407,1.8039588684,0.4867151941,9.7837597016
1520500647806492571,0.1039198540,-0.0547921719,-0.1886722021,1.8640872540,0.4783165281,9.8645327110
1520500647811509571,0.0948740214,-0.0536279929,-0.1894581455,1.8556692800,0.4711223412,9.8634595184
1520500647816525571,0.0838230750,-0.0495551268,-0.1885948487,1.8640872540,0.4963036344,9.8401101478
1520500647821540571,0.0720168639,-0.0481123012,-0.1850447007,1.8749103634,0.4663242809,9.8725740665
1520500647826556571,0.0574421002,-0.0489979927,-0.1828599328,1.8869360406,0.4591285018,9.8352754255
1520500647831573571,0.0398546988,-0.0475530609,-0.1809223255,1.8965565823,0.4291492419,9.8421838822
1520500647836588571,0.0242789582,-0.0472823493,-0.1754802476,1.8821257697,0.3847821702,9.8133140096
1520500647841604571,0.0099591864,-0.0464240057,-0.1716593326,1.9314310459,0.3643929429,9.7872868141
1520500647846620571,-0.0058639796,-0.0426538644,-0.1672722946,1.9290259105,0.3440077430,9.7652493678
1520500647851637571,-0.0196748654,-0.0383038086,-0.1615318147,1.9085822594,0.3200265268,9.7515260131
1520500647856651571,-0.0362556680,-0.0374485364,-0.1568950615,1.9182028011,0.3032378116,9.7409894478
1520500647861668571,-0.0520799789,-0.0348453901,-0.1519758241,1.8917463114,0.2648673786,9.7633651130
1520500647866684571,-0.0651349021,-0.0296237991,-0.1451478915,1.9194053688,0.2312892925,9.6736435538
1520500647871700571,-0.0776890272,-0.0241033423,-0.1410241283,1.9073796917,0.2145022632,9.6935334223
1520500647876716571,-0.0884849896,-0.0212133983,-0.1336770891,1.9314310459,0.2109029687,9.7270050039
1520500647881733571,-0.0992804619,-0.0156907955,-0.1300976848,1.9530772648,0.2109012828,9.7209835931
1520500647886746571,-0.1080628660,-0.0104689876,-0.1227365947,1.9290259105,0.1941151901,9.7154233452
1520500647891763571,-0.1138388735,-0.0098986810,-0.1189337714,1.9362413168,0.1857206452,9.7560363386
1520500647896779571,-0.1173494986,-0.0075835518,-0.1134985347,2.0108005150,0.1857148383,9.7448513295
1520500647901796571,-0.1216160039,-0.0081891191,-0.1056492156,2.0095979473,0.2120960212,9.7831880596
1520500647906810571,-0.1233670158,-0.0079239189,-0.0961746191,2.0360544370,0.2048991182,9.7701539809
1520500647911827571,-0.1233613116,-0.0094063366,-0.0867166281,2.0348518693,0.2408734245,9.7631577421
1520500647916843571,-0.1228581573,-0.0146765562,-0.0772884707,2.0456749787,0.2372751603,9.7723530562
1520500647921860571,-0.1210982893,-0.0199470121,-0.0675921011,2.0793468746,0.2492639421,9.7882836366
1520500647926875571,-0.1158138631,-0.0223102570,-0.0549040299,2.0673211975,0.2504640191,9.7581837750
1520500647931891571,-0.1138034451,-0.0284562248,-0.0446737044,2.1021956612,0.2984269199,9.7973104492
1520500647936906571,-0.1100282585,-0.0299371657,-0.0352227143,2.0853597132,0.3104196354,9.7904897629
1520500647941923571,-0.1019820072,-0.0334619520,-0.0236308530,2.0601057912,0.3104216022,9.7303040835
1520500647946939571,-0.0961965633,-0.0355270596,-0.0133764051,2.0528903849,0.3583877811,9.7349761161
1520500647951955571,-0.0909156498,-0.0378786496,-0.0050170682,2.0781443069,0.3427969888,9.7452048069
1520500647956970571,-0.0838742409,-0.0408196038,0.0060400144,2.0817520101,0.2864371079,9.7359274990
1520500647961987571,-0.0788419486,-0.0434728748,0.0181852375,2.1142213383,0.2588543493,9.7182061980
1520500647967002571,-0.0750665033,-0.0467108640,0.0308694398,2.1046007966,0.2648508007,9.7380504390
1520500647972019571,-0.0690244837,-0.0458663985,0.0427689271,2.0973853903,0.2684487840,9.7288200097
1520500647977035571,-0.0629872117,-0.0470550687,0.0522179398,2.1058033643,0.2660498475,9.6717953592
1520500647982050571,-0.0589551867,-0.0459200063,0.0641233839,2.1154239060,0.2840362046,9.6821434742
1520500647987065571,-0.0534136477,-0.0415703822,0.0728039310,2.0709289006,0.2780439679,9.6546909531
1520500647992083571,-0.0501324378,-0.0375188561,0.0836508226,2.0348518693,0.2852416202,9.6631700964
1520500647997098571,-0.0476033131,-0.0293758587,0.0899309574,2.0348518693,0.3308089563,9.6526663660
1520500648002113571,-0.0433134696,-0.0203594754,0.0967555861,2.0071928119,0.3547939189,9.6819657943
1520500648007129571,-0.0425426448,-0.0116343981,0.1030434341,2.0132056504,0.3559925911,9.6749332360
1520500648012146571,-0.0425260262,-0.0037866835,0.1104081966,1.9795337545,0.3847745837,9.6833679211
1520500648017161571,-0.0405009968,0.0026048961,0.1177581099,1.9434567231,0.4039636403,9.6929975150
1520500648022178571,-0.0402364666,0.0081223613,0.1248340751,1.9410515876,0.3955698446,9.7337041489
1520500648027194571,-0.0432416321,0.0133551749,0.1289378797,1.9218105042,0.3859782198,9.7397115043
1520500648032210571,-0.0447346530,0.0203303305,0.1354871356,1.9290259105,0.4039647642,9.7094079910
1520500648037224571,-0.0479876046,0.0255513907,0.1439201413,1.9242156397,0.3991685772,9.6769194579
1520500648042242571,-0.0502363724,0.0301908041,0.1520762881,1.8941514468,0.4267511484,9.6481315907
1520500648047257571,-0.0524829370,0.0377498902,0.1580902985,1.8857334728,0.4111629785,9.6493908714
1520500648052273571,-0.0519594122,0.0476323944,0.1673635104,1.8484538737,0.3512088608,9.6370286116
1520500648057288571,-0.0574745786,0.0534397082,0.1741818875,1.8063640038,0.3416190155,9.6025833247
1520500648062305571,-0.0614861705,0.0580908157,0.1777420210,1.7534510244,0.3656059450,9.5740213615
1520500648067322571,-0.0607142479,0.0668122508,0.1853825985,1.7005380451,0.3536186618,9.5884938049
1520500648072338571,-0.0612028184,0.0743756683,0.1900406124,1.6873098002,0.3452257091,9.6188464887
1520500648077353571,-0.0639575162,0.0807821311,0.1911768378,1.6151557374,0.3404347670,9.6230399013
1520500648082369571,-0.0631903804,0.0892267504,0.1934042743,1.5874966800,0.3332420787,9.5977489666
1520500648087383571,-0.0661942248,0.0959186718,0.1967075567,1.6019274926,0.2792796357,9.5593103757
1520500648092401571,-0.0644202707,0.1037729031,0.2019046849,1.5778761383,0.2744849472,9.5258469795
1520500648097417571,-0.0616481114,0.1084310395,0.2038289416,1.5369888361,0.2684924295,9.4995214872
1520500648102433571,-0.0621452126,0.1113395889,0.2057459272,1.4864809921,0.2085393421,9.5500437566
1520500648107448571,-0.0588675115,0.1168662483,0.2098402869,1.4035038200,0.1917578387,9.5032198741
1520500648112465571,-0.0556007129,0.1174532110,0.2087564820,1.3950858460,0.1713731071,9.5079702641
1520500648117479571,-0.0505687107,0.1212402653,0.2098582313,1.3626165177,0.1449945466,9.4676369876
1520500648122496571,-0.0473023120,0.1200723649,0.2111960010,1.2736265070,0.1521963200,9.4417668348
1520500648127511571,-0.0463029228,0.1162869452,0.2103535963,1.2964752935,0.1294108724,9.5577810516
1520500648132528571,-0.0382552876,0.1212458180,0.2095648159,1.2074852827,0.1126298373,9.5168264142
1520500648137543571,-0.0360035364,0.1157184108,0.2065423719,1.1978647410,0.1402108163,9.5447846148
1520500648142560571,-0.0329983709,0.1104855973,0.2024385673,1.1617877096,0.1402136261,9.5381629027
1520500648147576571,-0.0242106076,0.1061241028,0.2002245185,1.1509646002,0.1426127499,9.4906180074
1520500648152592571,-0.0189433645,0.0982566028,0.2009663317,1.1593825742,0.1486077964,9.4882059374
1520500648157606571,-0.0111623765,0.0941926549,0.1963214599,1.1786236576,0.1246234894,9.5066363466
1520500648162623571,-0.0023798509,0.0851653658,0.1954245712,1.1978647410,0.1498039397,9.4483173118
1520500648167640571,0.0041470971,0.0793365929,0.1967207042,1.1557748711,0.1162312859,9.4696783215
1520500648172655571,0.0111698291,0.0706036413,0.1944765762,1.1413440585,0.1042410056,9.4698304756
1520500648177671571,0.0202013679,0.0607059392,0.1922198221,1.1064695949,0.1390187940,9.4527038520
1520500648182688571,0.0282330314,0.0534244766,0.1921493098,1.0932413500,0.1366215435,9.3924034607
1520500648187702571,0.0372668558,0.0443972860,0.1912519545,1.0776079697,0.1126399526,9.3949033012
1520500648192719571,0.0425280340,0.0345010208,0.1879200176,1.0475437769,0.0850620643,9.3650070796
1520500648197735571,0.0495483040,0.0246054448,0.1845848137,1.0583668863,0.0634766938,9.3393556152
1520500648202751571,0.0533011129,0.0126616128,0.1839455746,1.0535566155,0.0430916812,9.3266387307
1520500648207766571,0.0590615878,-0.0001504860,0.1814021111,1.0475437769,0.0394947282,9.2883500135
1520500648212783571,0.0663272603,-0.0147095728,0.1785719629,1.0607720218,0.0514851022,9.3521274819
1520500648217798571,0.0705799030,-0.0257659425,0.1730686335,1.0824182406,0.0466868546,9.3670293397
1520500648222815571,0.0768347545,-0.0423556453,0.1667076939,1.1100772980,0.0478838409,9.3981368408
1520500648227831571,0.0805744574,-0.0621588467,0.1630324266,1.1906493348,0.0502758465,9.4682410446
1520500648232847571,0.0873287310,-0.0840063858,0.1615003642,1.2375494756,0.0718567214,9.4584663476
1520500648237862571,0.0910722563,-0.1029441748,0.1610783169,1.2579931267,0.0562663037,9.5024440333
1520500648242878571,0.0958211966,-0.1218822984,0.1609249487,1.2916650226,0.0478696982,9.5056109090
1520500648247894571,0.0990601876,-0.1425700484,0.1610315881,1.3301471895,0.0514641224,9.5319621501
1520500648252910571,0.1055695800,-0.1618046948,0.1630370968,1.3000829966,0.0418733405,9.5299398433
1520500648257925571,0.1055459085,-0.1798734492,0.1639814491,1.2664111007,0.0586639289,9.4849275999
1520500648262942571,0.1130678862,-0.1941563501,0.1668345211,1.2664111007,0.0526682268,9.4826091587
1520500648267958571,0.1198290244,-0.2104653979,0.1645330596,1.2363469079,0.0011075301,9.5178163854
1520500648272974571,0.1255970225,-0.2177411907,0.1620318348,1.2291315016,0.0358831643,9.4574212192
1520500648277990571,0.1303568772,-0.2273491820,0.1597852381,1.1978647410,0.0574701271,9.4623530784
1520500648283006571,0.1381379475,-0.2334622912,0.1586419013,1.1954596056,0.0143012592,9.4600942968
1520500648288020571,0.1471798755,-0.2334427213,0.1526730895,1.1617877096,-0.0084797864,9.4127963537
1520500648293037571,0.1539662298,-0.2287611567,0.1464735018,1.1569774388,-0.0084794117,9.4430589168
1520500648298053571,0.1665362404,-0.2214555952,0.1405537330,1.0884310792,-0.0576388305,9.4565576314
1520500648303069571,0.1733256330,-0.2135644302,0.1327553238,1.0595694540,-0.0600348635,9.4614894672
1520500648308084571,0.1826325499,-0.2007114593,0.1222845809,1.0174795841,-0.0828152534,9.4898128166
1520500648313101571,0.1904356804,-0.1837745968,0.1099539402,0.9898205267,-0.0864105205,9.5133284200
1520500648318118571,0.1972394179,-0.1645157930,0.1008895018,0.9212741671,-0.1391673605,9.5326413624
1520500648323133571,0.2027809492,-0.1467020209,0.0872170014,0.8719688908,-0.1235746950,9.5912132660
1520500648328150571,0.2093262252,-0.1294684386,0.0727265503,0.7853840155,-0.1607413046,9.6362537498
1520500648333165571,0.2078315265,-0.1096089904,0.0558361290,0.6903811662,-0.1667296076,9.6999400695
1520500648338180571,0.2055775211,-0.0932442665,0.0381087931,0.6494938639,-0.1403453338,9.7839866807
1520500648343198571,0.2033181918,-0.0809596544,0.0206208800,0.5665166917,-0.1379405904,9.8440613326
1520500648348213571,0.1962736311,-0.0744958624,-0.0001491779,0.4727164101,-0.1858989019,9.8566425401
1520500648353229571,0.1894801927,-0.0683240848,-0.0206513796,0.4450573527,-0.1834984669,9.8813144407
1520500648358243571,0.1804186472,-0.0647661846,-0.0446864853,0.3873341025,-0.1894896733,9.9260436004
1520500648363262571,0.1690872734,-0.0670361325,-0.0690323981,0.3440416648,-0.2122699696,9.9683243822
1520500648368277571,0.1602640070,-0.0719231860,-0.0950262612,0.2935338209,-0.1798892444,9.9397308236
1520500648373293571,0.1459126054,-0.0768138624,-0.1204687647,0.2706850343,-0.2254548010,9.9411597985
1520500648378308571,0.1355766142,-0.0869537125,-0.1437943840,0.2514439509,-0.2590292343,9.9285962374
1520500648383324571,0.1259972009,-0.0959313712,-0.1657597818,0.1684667787,-0.2314425420,9.8945126729
1520500648388339571,0.1149059959,-0.1060671461,-0.1907072764,0.0842870388,-0.2602153560,9.7965778548
1520500648393357571,0.1025612881,-0.1141644499,-0.2153663298,-0.0311594616,-0.2901848752,9.7756500386
1520500648398371571,0.0912229163,-0.1225578435,-0.2381356520,-0.1105289307,-0.2853821320,9.7124999775
1520500648403388571,0.0823915543,-0.1335647005,-0.2639056541,-0.1814804257,-0.2865757464,9.6155716530
1520500648408403571,0.0735623014,-0.1439931591,-0.2880479345,-0.2091394831,-0.3141538220,9.5403284071
1520500648413420571,0.0629767245,-0.1538460937,-0.3097475887,-0.1790752903,-0.3141561635,9.4563614160
1520500648418435571,0.0579355995,-0.1537978010,-0.3284059211,-0.1694547486,-0.3357414404,9.3842358985
1520500648423452571,0.0511244722,-0.1616168514,-0.3473915556,-0.0816673055,-0.2949775032,9.3345316257
1520500648428468571,0.0445685093,-0.1688632323,-0.3625855681,0.0301714918,-0.2734016859,9.2939091129
1520500648433484571,0.0430362686,-0.1816614324,-0.3713380522,0.1444154245,-0.2350380901,9.2660304028
1520500648438498571,0.0407507862,-0.1959255917,-0.3768537008,0.3187877429,-0.1822894921,9.2944974615
1520500648443515571,0.0392251710,-0.2105019647,-0.3745271416,0.4258162693,-0.1571158790,9.3213226102
1520500648448531571,0.0369454359,-0.2265413831,-0.3700459306,0.5773398012,-0.1067637824,9.3674465630
1520500648453548571,0.0402022294,-0.2399707434,-0.3601440617,0.6278476451,-0.0528063970,9.3947937853
1520500648458563571,0.0409424240,-0.2571941861,-0.3483726045,0.6482912962,0.0359284021,9.3096717595
1520500648463579571,0.0449543882,-0.2703347802,-0.3373877292,0.6302527805,0.0886919856,9.3109580284
1520500648468595571,0.0484664794,-0.2826065167,-0.3245014299,0.6855708953,0.1390515750,9.3254783550
1520500648473611571,0.0527336119,-0.2937109628,-0.3121487302,0.7396864424,0.1906103985,9.3806842556
1520500648478628571,0.0592593485,-0.3091947604,-0.2963164807,0.7697506352,0.2205865676,9.3327144936
1520500648483642571,0.0627669508,-0.3252566810,-0.2826474438,0.7384838747,0.2757494623,9.3399378992
1520500648488657571,0.0677838006,-0.3392739486,-0.2705889211,0.7216479267,0.2817464756,9.3633388024
1520500648493674571,0.0710483291,-0.3500946883,-0.2555266725,0.6735452182,0.2757545199,9.3568399876
1520500648498690571,0.0773260326,-0.3594427553,-0.2458698270,0.6194296711,0.2973432622,9.3503728033
1520500648503706571,0.0836035675,-0.3661559782,-0.2407922540,0.5304396603,0.2589776995,9.3524385403
1520500648508721571,0.0911477661,-0.3629507085,-0.2396996182,0.4787292487,0.2278040759,9.3762151396
1520500648513738571,0.0979445840,-0.3533279902,-0.2412621333,0.3981572119,0.2278103511,9.3607293631
1520500648518754571,0.1092694500,-0.3381577241,-0.2463079074,0.3801186962,0.1546641902,9.4190834663
1520500648523770571,0.1218613287,-0.3139482179,-0.2534514667,0.3560673420,0.0839167784,9.4716830364
1520500648528787571,0.1309348904,-0.2903250444,-0.2597813003,0.4222085662,0.0599288186,9.6151684954
1520500648533802571,0.1447757439,-0.2701878735,-0.2693932295,0.5148062801,0.0299430962,9.7525915701
1520500648538817571,0.1603769594,-0.2512250211,-0.2755002214,0.6230373742,-0.0264249331,9.8643210375
1520500648543834571,0.1727046410,-0.2392661468,-0.2781374033,0.7456992810,-0.0456207332,10.0037652497
1520500648548850571,0.1830258367,-0.2284918091,-0.2740160964,0.8503226720,0.0059341566,9.9992101963
1520500648553865571,0.2031677436,-0.2049014536,-0.2665686251,0.8683611877,0.0383095432,9.9885437527
1520500648558881571,0.2011636256,-0.2072646400,-0.2549492025,0.9838076881,-0.0012710822,10.0037286708
1520500648563898571,0.2147557793,-0.2003076153,-0.2394999354,1.0812156729,0.0322972632,9.9086141595
1520500648568914571,0.2245945360,-0.1878441702,-0.2134501390,1.1028618917,0.1042440027,9.8734689895
1520500648573929571,0.2266286019,-0.1847022547,-0.1896213800,1.1389389231,0.1054403334,10.0462761176
1520500648578946571,0.2407238198,-0.1838932454,-0.1633978953,1.1846364962,0.1845800422,10.1038613468
1520500648583962571,0.2508007185,-0.1819231871,-0.1360758672,1.1353312200,0.2661254311,10.0926402995
1520500648588976571,0.2560980584,-0.1825730895,-0.1103882544,1.2014724442,0.3488609690,10.1883737852
1520500648593993571,0.2661885923,-0.1718673228,-0.0808351665,1.1389389231,0.4148185626,10.2237824531
1520500648599009571,0.2720037489,-0.1626157818,-0.0529085352,1.1088747303,0.5371332273,10.2576579816
1520500648604025571,0.2780760145,-0.1481148503,-0.0265656304,1.1425466262,0.6066807494,10.2828295853
1520500648609041571,0.2874193440,-0.1306995221,0.0000639838,1.0884310792,0.6846290916,10.3100096167
1520500648614056571,0.2942549660,-0.1089122252,0.0259199738,1.0523540478,0.7553811864,10.4137225894
1520500648619073571,0.3003386714,-0.0856683010,0.0517884794,1.0222898549,0.8009508640,10.4279165083
1520500648624089571,0.3069244490,-0.0618370403,0.0760372223,1.0198847195,0.8417218257,10.4871695026
1520500648629105571,0.3124971200,-0.0409069069,0.0953957751,0.9862128236,0.8513175716,10.6048644288
1520500648634120571,0.3183151935,-0.0246402844,0.1152593837,1.0114667455,0.8537138855,10.7429114145
1520500648639135571,0.3233683737,-0.0156549282,0.1337160858,1.0186821518,0.8681030087,10.8253393728
1520500648644151571,0.3279085751,-0.0136600839,0.1510381837,1.0379232352,0.8884868973,10.9308873130
1520500648649168571,0.3274155863,-0.0163264475,0.1672518631,1.0655822926,0.8692984963,10.9945547236
1520500648654184571,0.3276654462,-0.0289076023,0.1863645623,1.0740002666,0.8417176110,11.0560933126
1520500648659199571,0.3271628563,-0.0423719472,0.2087185432,1.1377363554,0.8057384343,11.1159395104
1520500648664216571,0.3266484816,-0.0622365537,0.2272359737,1.1930544702,0.7913444409,11.1386579890
1520500648669233571,0.3195954486,-0.0876487673,0.2489698511,1.2147006890,0.7169960487,11.2326534573
1520500648674248571,0.3110384960,-0.1095620435,0.2696510223,1.2026750119,0.6726287897,11.2723266678
1520500648679264571,0.3002150554,-0.1361434573,0.2921946458,1.1485594648,0.6066802811,11.2601341255
1520500648684279571,0.2863810077,-0.1563032096,0.3101934978,1.0499489123,0.4999644635,11.2007665257
1520500648689295571,0.2665164115,-0.1732477117,0.3236287247,0.8996279482,0.4376208690,11.0965353636
1520500648694312571,0.2451528237,-0.1829045493,0.3357695997,0.7974096926,0.3225113494,10.9860767304
1520500648699328571,0.2195249104,-0.1826370474,0.3409598006,0.6951914370,0.2481726043,10.9383341131
1520500648704343571,0.1946489255,-0.1794357372,0.3388660930,0.5556935823,0.1378625499,10.8479901065
1520500648709360571,0.1652555483,-0.1706947942,0.3349292037,0.4534753267,0.0119607665,10.7189476940
1520500648714376571,0.1308303961,-0.1628146769,0.3253135159,0.4161957276,-0.1007555298,10.6345839600
1520500648719392571,0.0959081938,-0.1493918946,0.3133060870,0.3115723366,-0.1894837727,10.5578251861
1520500648724407571,0.0604707739,-0.1426594984,0.2969197263,0.2285951644,-0.2830102632,10.4518067996
1520500648729424571,0.0222736500,-0.1297967268,0.2759859041,0.1720744819,-0.3921276397,10.3246275122
1520500648734439571,-0.0144129995,-0.1157714685,0.2564109034,0.1600488048,-0.4772656732,10.2643961002
1520500648739454571,-0.0523600556,-0.1034899107,0.2349310765,0.1420102891,-0.5480135533,10.1670205749
1520500648744471571,-0.0920667289,-0.0906219024,0.2118356875,0.1227692057,-0.6235579014,10.0731478639
1520500648749487571,-0.1272528421,-0.0809624507,0.1906012648,0.1552385339,-0.6799200301,10.0322117480
1520500648754502571,-0.1626978635,-0.0762537207,0.1682473328,0.1552385339,-0.7015045577,10.0589621070
1520500648759519571,-0.1986471607,-0.0750520000,0.1496552997,0.1696693465,-0.7314841922,9.9856358107
1520500648764535571,-0.2340928486,-0.0732680418,0.1313373253,0.1396051536,-0.7015033402,9.9475484531
1520500648769550571,-0.2584684978,-0.0621561750,0.1133404997,0.2093540810,-0.6859199469,9.7539384621
1520500648774567571,-0.2951692373,-0.0627190823,0.1006885380,0.2706850343,-0.6523487917,9.8079295285
1520500648779582571,-0.3228114812,-0.0580488208,0.0937412536,0.2827107115,-0.6703368347,9.6346705689
1520500648784597571,-0.3456705557,-0.0469655006,0.0865634635,0.2574567895,-0.6259666722,9.5511987448
1520500648789613571,-0.3690325297,-0.0338324875,0.0756145259,0.2634696281,-0.5708066810,9.4499799059
1520500648794631571,-0.3833341146,-0.0134237003,0.0693036436,0.2562542218,-0.5408276084,9.4279401676
1520500648799646571,-0.4024224836,-0.0046845480,0.0675119858,0.3873341025,-0.5935999960,9.4139321839
1520500648804661571,-0.4129550762,0.0130930573,0.0649617375,0.4318291079,-0.5156593339,9.3564780360
1520500648809678571,-0.4237418686,0.0297093967,0.0607797881,0.3993597796,-0.5180550859,9.2440684476
1520500648814694571,-0.4335266375,0.0425315751,0.0590019848,0.4041700505,-0.5516313924,9.2394057931
1520500648819710571,-0.4390267887,0.0640947778,0.0580945774,0.4282214047,-0.5036676487,9.2275034789
1520500648824726571,-0.4440308462,0.0836308691,0.0525713948,0.4137905922,-0.4952725418,9.1509342532
1520500648829742571,-0.4450160160,0.1011259303,0.0481073666,0.4655010038,-0.4820860245,9.1143916105
1520500648834758571,-0.4422287121,0.1206614315,0.0439224450,0.5027806029,-0.4940803322,9.1558776294
1520500648839772571,-0.4386897189,0.1358140769,0.0443020572,0.5917706137,-0.4665070333,9.2130917582
1520500648844789571,-0.4336468101,0.1460043064,0.0481581733,0.6975965724,-0.4257445010,9.2178326754
1520500648849806571,-0.4238318228,0.1529853493,0.0541453348,0.7974096926,-0.3597995515,9.2260939937
1520500648854820571,-0.4082338456,0.1596656173,0.0644482730,0.8791842971,-0.3046454609,9.1857313659
1520500648859837571,-0.3974032112,0.1671977722,0.0823420332,0.8839945680,-0.2614767803,9.1786695857
1520500648864854571,-0.3810448768,0.1761984853,0.0967195443,0.9152613285,-0.2279032836,9.1330088985
1520500648869869571,-0.3616647112,0.1889847366,0.1124730844,0.9669717402,-0.1715477111,9.0580734091
1520500648874885571,-0.3405260262,0.2011881795,0.1284894570,0.9850102558,-0.1799430989,9.0160688362
1520500648879901571,-0.3188763460,0.2174617332,0.1480531161,1.0343155321,-0.1715529560,9.0469586303
1520500648884917571,-0.2972247722,0.2357778923,0.1665501532,1.0126693132,-0.1763478318,9.0274175515
1520500648889932571,-0.2720469192,0.2602152332,0.1848167951,1.0030487715,-0.1139917805,8.9763160523
1520500648894948571,-0.2451122600,0.2837827520,0.2017207712,1.0391258029,-0.1127954499,9.0329087850
1520500648899964571,-0.2204456687,0.3029800736,0.2180545097,1.1004567563,-0.1343847542,9.0974129367
1520500648904980571,-0.1955365800,0.3148892383,0.2356849338,1.1341286523,-0.1511753426,9.1854245064
1520500648909996571,-0.1676089140,0.3288385477,0.2535958647,1.2171058244,-0.1559783668,9.2101887018
1520500648915013571,-0.1399377375,0.3392926012,0.2709394936,1.2459674496,-0.1463874913,9.2528977521
1520500648920029571,-0.1120181319,0.3439023087,0.2944607496,1.2628033975,-0.1475879429,9.2875993692
1520500648925044571,-0.0871140652,0.3496814718,0.3161026774,1.2291315016,-0.1511827417,9.2309855651
1520500648930060571,-0.0619609853,0.3545902220,0.3363847397,1.2339417724,-0.1919538908,9.2030870475
1520500648935076571,-0.0355478516,0.3606584467,0.3591082738,1.2219160953,-0.1739658478,9.1706465273
1520500648940091571,-0.0096341909,0.3693503921,0.3813116573,1.1894467670,-0.2219289359,9.1349828748
1520500648945108571,0.0170312611,0.3789277129,0.3994621215,1.1209004074,-0.2746857759,9.1438365216
1520500648950124571,0.0426880481,0.3882234534,0.4138245869,1.0896336469,-0.2962678684,9.1232433100
1520500648955139571,0.0655721898,0.3916918772,0.4276066328,1.0559617509,-0.3142523523,9.1805336454
1520500648960156571,0.0876936414,0.3907987073,0.4378396360,1.0222898549,-0.3346351170,9.2238805921
1520500648965171571,0.1050342133,0.3858264687,0.4472387460,1.0030487715,-0.3226422142,9.3205141278
1520500648970188571,0.1226277109,0.3817270253,0.4571851503,1.0042513393,-0.3046552015,9.4169428308
1520500648975203571,0.1384543778,0.3735547936,0.4643982395,0.9597563339,-0.3358293871,9.4464599196
1520500648980219571,0.1497554194,0.3627539583,0.4732229974,0.9898205267,-0.3118489201,9.4589274899
1520500648985235571,0.1628179286,0.3537021195,0.4820578267,0.9669717402,-0.2950591747,9.5021328415
1520500648990250571,0.1721136840,0.3469813368,0.4903763498,0.9417178182,-0.2770701015,9.5011989637
1520500648995267571,0.1824137133,0.3405567031,0.4970719536,0.9465280890,-0.2123168932,9.5045754310
1520500649000283571,0.1922141794,0.3358779944,0.5045934671,0.9621614693,-0.2111189704,9.5334756948
1520500649005297571,0.1984940470,0.3312059200,0.5091455099,0.9008305159,-0.1835339640,9.5561264930
1520500649010315571,0.2032572889,0.3239282765,0.5071872438,0.9080459222,-0.1727422621,9.5653428902
1520500649015331571,0.2072660580,0.3146033616,0.5079202752,0.8912099742,-0.1331693169,9.5875489079
1520500649020347571,0.2085111124,0.3058608612,0.5083923408,0.8599432137,-0.1511539881,9.5681143323
1520500649025363571,0.2117704818,0.3032527921,0.5034964395,0.8358918594,-0.1595460979,9.5520866034
1520500649030378571,0.2112569932,0.3027033340,0.4910478155,0.7589275258,-0.1427521377,9.5400357728
1520500649035395571,0.2092412082,0.3050620314,0.4805180441,0.7264581976,-0.1571392940,9.5078258107
1520500649040410571,0.2084825837,0.3103459928,0.4659499814,0.6879760307,-0.1943096500,9.4873180308
1520500649045426571,0.2049609071,0.3176736619,0.4495087930,0.6543041348,-0.2015018701,9.4992742280
1520500649050442571,0.2019343127,0.3223921789,0.4281768373,0.6374681868,-0.2254833673,9.5087586372
1520500649055457571,0.1928752253,0.3256492251,0.4076566052,0.6675323796,-0.3166203810,9.5201763201
1520500649060475571,0.1853178189,0.3257074596,0.3849447516,0.6567092702,-0.3166195380,9.5319031051
1520500649065490571,0.1742373441,0.3216827471,0.3630199467,0.6723426505,-0.3717812151,9.5225075774
1520500649070506571,0.1606368398,0.3118264458,0.3421375308,0.6819631922,-0.3729811048,9.5468201293
1520500649075522571,0.1485368288,0.2978971792,0.3190568243,0.6699375151,-0.3885689937,9.5318445099
1520500649080537571,0.1379456653,0.2842577027,0.2967871782,0.6326579159,-0.3753755456,9.5612481027
1520500649085553571,0.1205717151,0.2700226007,0.2783133300,0.6122142648,-0.3981576214,9.6451436709
1520500649090569571,0.1014315066,0.2522982080,0.2568400670,0.6206322388,-0.3717771877,9.6264417067
1520500649095586571,0.0832916517,0.2301997990,0.2366843203,0.6254425097,-0.3405999113,9.6751745298
1520500649100602571,0.0684199048,0.2057570251,0.2219156394,0.6434810254,-0.3406013162,9.7121875604
1520500649105617571,0.0520439245,0.1824726427,0.2095935643,0.6446835931,-0.3046271972,9.7121407752
1520500649110634571,0.0344050246,0.1536478199,0.1985843136,0.6771529213,-0.2662572325,9.7582730780
1520500649115650571,0.0172704747,0.1233538880,0.1921622943,0.6494938639,-0.1931075125,9.7828759876
1520500649120665571,0.0011499136,0.0974216482,0.1892888511,0.6627221088,-0.1427446449,9.8140760065
1520500649125682571,-0.0127089580,0.0714902945,0.1864112073,0.6975965724,-0.1367516589,9.7858392583
1520500649130698571,-0.0248093142,0.0435126540,0.1862201938,0.6891785985,-0.0612051567,9.7823610935
1520500649135713571,-0.0333864294,0.0184465951,0.1873976066,0.7180402236,0.0023470379,9.8145582278
1520500649140729571,-0.0417060437,-0.0025421674,0.1894173135,0.7541172550,0.0467124238,9.7653537645
1520500649145745571,-0.0497707523,-0.0212012120,0.1919954301,0.7817763124,0.1054681504,9.8033780011
1520500649150761571,-0.0515507478,-0.0386944425,0.1953824087,0.7721557707,0.1762181846,9.7906190670
1520500649155775571,-0.0548347570,-0.0550300098,0.2014865389,0.7913968541,0.2301780051,9.7613255670
1520500649160793571,-0.0568608685,-0.0719551383,0.2102893483,0.7661429321,0.2553619209,9.7894382720
1520500649165809571,-0.0586332976,-0.0842049041,0.2142574343,0.8322841563,0.2901318419,9.8445434928
1520500649170825571,-0.0563802449,-0.0955905959,0.2225534562,0.8503226720,0.3069184029,9.8304058188
1520500649175839571,-0.0541238911,-0.1040602572,0.2300600713,0.8094353698,0.3357009575,9.8458835980
1520500649180857571,-0.0501072538,-0.1101915971,0.2351462910,0.7649403644,0.3776743377,9.8660322054
1520500649185872571,-0.0425724328,-0.1163215587,0.2402259765,0.7757634738,0.3836691969,9.8473267099
1520500649190888571,-0.0355349326,-0.1195422426,0.2469521017,0.7733583384,0.4076521927,9.8647588926
1520500649195904571,-0.0272339403,-0.1166389884,0.2520993027,0.7865865832,0.4196425667,9.9262120731
1520500649200919571,-0.0159192557,-0.1157771583,0.2583075250,0.8058276666,0.4244376298,9.9806408807
1520500649205934571,-0.0035943184,-0.1120047312,0.2658888408,0.8587406460,0.4556111598,9.9928790389
1520500649210952571,0.0087384049,-0.1029895679,0.2743218097,0.8503226720,0.5083739940,10.0951781914
1520500649215968571,0.0213205765,-0.0963097529,0.2843598027,0.8599432137,0.5491440191,10.2356642118
1520500649220984571,0.0331495573,-0.0884617815,0.2933259046,0.9393126828,0.5887094716,10.2755281283
1520500649225999571,0.0427106897,-0.0849847356,0.3019923148,0.9765922819,0.6174859383,10.3146501019
1520500649231015571,0.0527770072,-0.0826868712,0.3157892712,1.0078590424,0.6978259115,10.3979417894
1520500649236032571,0.0623350934,-0.0853463828,0.3309020981,1.0824182406,0.7014175258,10.4367254623
1520500649241047571,0.0711282001,-0.0947014780,0.3435302812,1.1942570379,0.7050062367,10.4693355587
1520500649246064571,0.0746475402,-0.1055337741,0.3629207974,1.3181215123,0.7577587684,10.4506463276
1520500649251080571,0.0759018348,-0.1233805811,0.3898374452,1.4540116639,0.7589473252,10.4795382297
1520500649256094571,0.0753943993,-0.1426828146,0.4159346069,1.5634453258,0.7565405213,10.4482596655
1520500649261111571,0.0753958418,-0.1614202930,0.4487989288,1.5862941123,0.7721275673,10.3806177186
1520500649266127571,0.0718828800,-0.1790008959,0.4843841360,1.6392070917,0.7817165696,10.3370940151
1520500649271143571,0.0661076133,-0.1968730410,0.5197007748,1.6608533105,0.7805157433,10.2392644013
1520500649276159571,0.0600880025,-0.2083289975,0.5529024210,1.6596507428,0.7613295902,10.1893226258
1520500649281174571,0.0543195220,-0.2171500115,0.5815243281,1.6007249249,0.7505419157,10.1306373559
1520500649286190571,0.0483057684,-0.2221860388,0.6112577855,1.6247762791,0.7241589532,10.1048618133
1520500649291206571,0.0445602200,-0.2208034361,0.6383304914,1.6223711437,0.7205617193,10.1560230654
1520500649296223571,0.0418338588,-0.2086370268,0.6646719468,1.6139531697,0.6486139495,10.2142823588
1520500649301239571,0.0416202743,-0.1935419475,0.6858905939,1.5670530289,0.6726004107,10.3030384098
1520500649306253571,0.0444340722,-0.1676549896,0.7036687978,1.4251500388,0.6762088838,10.4194683499
1520500649311271571,0.0535372134,-0.1333001219,0.7158183392,1.2952727258,0.7529639862,10.6286814261
1520500649316287571,0.0654084328,-0.0933954819,0.7234057051,1.1762185222,0.8213242627,10.8145544630
1520500649321302571,0.0795381858,-0.0514305964,0.7236996929,1.0319103966,0.9160675953,10.9111624963
1520500649326317571,0.0969303033,-0.0085713383,0.7169600892,0.9441229536,1.0335901940,10.9990631667
1520500649331334571,0.1203528008,0.0337075137,0.7102048380,0.8226636146,1.1007515174,11.1338264491
1520500649336349571,0.1425104458,0.0701596398,0.7028663670,0.7505095518,1.2110780559,11.3412827972
1520500649341366571,0.1701910354,0.1031202313,0.6944087674,0.6819631922,1.3154086114,11.4847919592
1520500649346381571,0.1935824322,0.1241352971,0.6847857720,0.6410758899,1.3609791319,11.5583605654
1520500649351398571,0.2109349967,0.1375632612,0.6783627285,0.5845552074,1.4089491509,11.6285925667
1520500649356412571,0.2257582482,0.1381656793,0.6731992660,0.6122142648,1.4317306647,11.6190039813
1520500649361430571,0.2385731712,0.1381750711,0.6715521877,0.5881629106,1.4449230826,11.6145766439
1520500649366446571,0.2508688231,0.1262389573,0.6692738046,0.5532884469,1.4497223604,11.6183978451
1520500649371460571,0.2571295590,0.1099224283,0.6696787355,0.5701243949,1.4317339428,11.5578200287
1520500649376477571,0.2616269338,0.0898142975,0.6711402170,0.5039831707,1.3873708985,11.4225362297
1520500649381493571,0.2661221132,0.0697134510,0.6698962395,0.5160088478,1.2830447450,11.3632515700
1520500649386508571,0.2663431465,0.0487396910,0.6675713435,0.4931600612,1.2098989587,11.2938166585
1520500649391525571,0.2632990983,0.0289294607,0.6655319531,0.4691087070,1.1775240405,11.1848408001
1520500649396541571,0.2605008996,0.0073812197,0.6596911149,0.4438547850,1.0348282970,11.1038756809
1520500649401557571,0.2592050798,-0.0191243381,0.6554329593,0.4679061393,0.9233063644,11.1118853360
1520500649406572571,0.2546597975,-0.0328102566,0.6512786869,0.4258162693,0.8321749703,11.0658981246
1520500649411588571,0.2495988587,-0.0531851044,0.6422043908,0.3849289671,0.7830133974,11.0186961373
1520500649416605571,0.2390032259,-0.0796884776,0.6357991369,0.3825238317,0.6690952445,11.0165063467
1520500649421619571,0.2324378422,-0.0959772485,0.6240533054,0.3163826074,0.6499141490,11.0125202584
1520500649426637571,0.2216004294,-0.1096335774,0.6080066816,0.2911286855,0.6247341670,10.8791440660
1520500649431653571,0.2085038401,-0.1194940524,0.5887466077,0.2430259770,0.6439241602,10.8540263918
1520500649436667571,0.1926427049,-0.1275985621,0.5662584555,0.2610644926,0.6007537000,10.8132178738
1520500649441684571,0.1810575232,-0.1322018700,0.5427068625,0.2490388155,0.5995554962,10.6727166753
1520500649446700571,0.1606796072,-0.1359395692,0.5210720953,0.2634696281,0.6103466361,10.5644863028
1520500649451715571,0.1435731040,-0.1376421243,0.5016111894,0.2646721958,0.6163422445,10.4308221963
1520500649456731571,0.1244587154,-0.1384756841,0.4837839620,0.3139774720,0.6307280896,10.2850602626
1520500649461747571,0.1055955785,-0.1404797825,0.4678411968,0.3608776128,0.6067416284,10.1730613326
1520500649466764571,0.0849815709,-0.1387067693,0.4557182413,0.4101828891,0.6391145797,10.0970104961
1520500649471780571,0.0648753006,-0.1360725174,0.4484708478,0.4630958684,0.6666906884,9.9697948878
1520500649476796571,0.0462751414,-0.1384079656,0.4474054170,0.5160088478,0.6379071972,9.8554178220
1520500649481812571,0.0266729898,-0.1416325298,0.4517461018,0.5749346657,0.6438983100,9.7490833277
1520500649486827571,0.0098385086,-0.1439891418,0.4587937809,0.6386707545,0.6151139759,9.6299523405
1520500649491844571,-0.0042217080,-0.1425726973,0.4718172358,0.6795580568,0.5791365787,9.5342936445
1520500649496859571,-0.0187813624,-0.1417523306,0.4897070042,0.6723426505,0.5515569109,9.4716349961
1520500649501875571,-0.0293147783,-0.1362653225,0.5065426907,0.6422784577,0.5359704269,9.3743227318
1520500649506890571,-0.0395888939,-0.1269996866,0.5269239073,0.6242399420,0.5407683935,9.3070892809
1520500649511908571,-0.0506165061,-0.1159794830,0.5448849495,0.6230373742,0.4832097469,9.2583470682
1520500649516924571,-0.0591285346,-0.1032107162,0.5631252089,0.5568961500,0.4556346684,9.1509383534
1520500649521940571,-0.0706592698,-0.0916035699,0.5794683553,0.5460730406,0.4244578604,9.1905869961
1520500649526956571,-0.0801732750,-0.0738700051,0.5934195397,0.4859446550,0.3896874711,9.1447204016
1520500649531972571,-0.0911977547,-0.0572989269,0.6060119026,0.4811343841,0.3357265267,9.0901990763
1520500649536986571,-0.1054937766,-0.0418844687,0.6148137980,0.4378419465,0.2973574049,9.0499828388
1520500649542002571,-0.1197939738,-0.0279196488,0.6208991190,0.4378419465,0.2577857709,9.0430485632
1520500649547019571,-0.1343501351,-0.0180372245,0.6280359672,0.4186008630,0.2493932865,8.9851368318
1520500649552034571,-0.1486560090,-0.0087367424,0.6348973565,0.4402470819,0.2134173879,8.9245297353
1520500649557050571,-0.1682437726,-0.0008865093,0.6385108809,0.4270188370,0.2146175586,8.8700365558
1520500649562070571,-0.1838138717,0.0072683385,0.6377904264,0.4234111339,0.1774444865,8.7992171392
1520500649567082571,-0.2011419649,0.0154188550,0.6384259685,0.4101828891,0.1726489550,8.7435676624
1520500649572099571,-0.2184651302,0.0273580987,0.6388198648,0.4222085662,0.1750462993,8.6772060678
1520500649577115571,-0.2362951976,0.0387260314,0.6348815140,0.3957520765,0.1882389044,8.5345070099
1520500649582130571,-0.2541252533,0.0544843997,0.6236717704,0.3861315348,0.1546637219,8.5636869907
1520500649587145571,-0.2656728422,0.0687817508,0.6148741563,0.3753084254,0.1822447945,8.5753868810
1520500649592163571,-0.2782296723,0.0807505456,0.6049784408,0.3452442326,0.2122256466,8.5721638420
1520500649597178571,-0.2948151989,0.0883535530,0.5926219335,0.3536622065,0.2074284293,8.5895187433
1520500649602193571,-0.3076390330,0.0892518226,0.5818305698,0.3163826074,0.2362107029,8.6305285743
1520500649607208571,-0.3182028477,0.0895711230,0.5699483759,0.3500545034,0.2589917485,8.6429621988
1520500649612225571,-0.3333058288,0.0808673857,0.5536769330,0.3031543626,0.2613936821,8.6643349485
1520500649617242571,-0.3418790470,0.0680817258,0.5392560533,0.3175851752,0.2805788049,8.6955536652
1520500649622258571,-0.3499439948,0.0584971221,0.5264819695,0.3260031491,0.3045609578,8.7256640858
1520500649627273571,-0.3577605017,0.0474586080,0.5126141200,0.2971415240,0.3477322609,8.7967936921
1520500649632289571,-0.3630643261,0.0370074895,0.4973933200,0.3175851752,0.3513280899,8.8070504937
1520500649637305571,-0.3661028072,0.0300575137,0.4808422669,0.2839132792,0.3513307124,8.7771624925
1520500649642321571,-0.3709040260,0.0225335493,0.4607729382,0.2538490864,0.3621253177,8.7937146102
1520500649647338571,-0.3726897883,0.0158892904,0.4390814026,0.2526465187,0.4064936070,8.8215745046
1520500649652353571,-0.3742226679,0.0104106682,0.4173982926,0.2959389563,0.3681177417,8.8514062843
1520500649657368571,-0.3724941160,0.0017317382,0.3943319319,0.3139774720,0.3789086006,8.8616794800
1520500649662385571,-0.3732766197,-0.0066618909,0.3731662827,0.3488519357,0.3789058845,8.8810964805
1520500649667401571,-0.3707831785,-0.0095230330,0.3539306260,0.3260031491,0.3561239960,8.9045839731
1520500649672417571,-0.3662831691,-0.0132487999,0.3314380155,0.2899261178,0.3453345420,8.9270263840
1520500649677433571,-0.3653002024,-0.0172724287,0.3108435373,0.2971415240,0.3129571886,8.8921234072
1520500649682449571,-0.3638085614,-0.0148766598,0.2870504828,0.2995466595,0.2997664566,8.9176800268
1520500649687463571,-0.3600610842,-0.0174364555,0.2642976190,0.2887235500,0.3237501080,8.9363562888
1520500649692480571,-0.3550496326,-0.0141666115,0.2410457914,0.2490388155,0.2937746882,8.9774468276
1520500649697496571,-0.3475251967,-0.0123592615,0.2202130942,0.2430259770,0.2721906289,9.0205257273
1520500649702512571,-0.3402506522,-0.0096785847,0.1996580789,0.1985309716,0.2470121454,9.0407398177
1520500649707527571,-0.3322233991,-0.0078717662,0.1790949942,0.1660616433,0.2242310062,9.0608345189
1520500649712544571,-0.3251991850,-0.0043163060,0.1582765690,0.1552385339,0.1846602152,9.0923563393
1520500649717559571,-0.3169189591,-0.0004660552,0.1363758497,0.1384025859,0.1762675434,9.1483113053
1520500649722577571,-0.3098950940,0.0039686577,0.1136702724,0.1227692057,0.1594807951,9.2309920625
1520500649727591571,-0.3011118744,0.0081104899,0.0917708427,0.1528333985,0.1294999430,9.2632687003
1520500649732609571,-0.2913292695,0.0070034239,0.0714528060,0.1901129976,0.0767348609,9.3047944769
1520500649737623571,-0.2820460986,0.0067637587,0.0535772850,0.2466336801,0.0503493696,9.4088630206
1520500649742640571,-0.2720098270,0.0044781413,0.0381197153,0.2779004406,0.0515460749,9.5026911800
1520500649747655571,-0.2602148596,0.0019018285,0.0226566555,0.3103697689,0.1031065842,9.5732156431
1520500649752672571,-0.2481673231,-0.0018493935,0.0107013333,0.3163826074,0.1126992393,9.7230643332
1520500649757686571,-0.2368805439,-0.0096759237,-0.0029069874,0.3344211231,0.1150961153,9.8367765262
1520500649762703571,-0.2250913513,-0.0207213269,-0.0114003234,0.3656878837,0.1834446843,9.9154313313
1520500649767718571,-0.2130559172,-0.0346768349,-0.0212690864,0.3296108523,0.2613916216,10.0377315911
1520500649772734571,-0.2030270082,-0.0480605594,-0.0273420270,0.2310002998,0.3369451484,10.1827235877
1520500649777751571,-0.1897234245,-0.0547367893,-0.0349931794,0.1347948828,0.4424769984,10.2416642881
1520500649782767571,-0.1769272724,-0.0628606692,-0.0461716104,0.0301714918,0.5540052062,10.3576261309
1520500649787781571,-0.1669026210,-0.0756448708,-0.0584626604,-0.0600210867,0.6499434646,10.4200040926
1520500649792798571,-0.1543605825,-0.0855156994,-0.0701950550,-0.0985032535,0.7230940275,10.5190895608
1520500649797815571,-0.1403103591,-0.0965580313,-0.0795042292,-0.1153392015,0.7866497812,10.5819472301
1520500649802831571,-0.1307848828,-0.1102318804,-0.0861195512,-0.1405931235,0.8346173650,10.6565234758
1520500649807846571,-0.1197579920,-0.1282744498,-0.0933121116,-0.1526188006,0.9053675866,10.7425701880
1520500649812863571,-0.1059629957,-0.1469140024,-0.0948327883,-0.1273648786,0.9341449899,10.7806470681
1520500649817879571,-0.0941776804,-0.1629224122,-0.0998468201,-0.1682521809,1.0001008976,10.8321150604
1520500649822894571,-0.0846544074,-0.1795159340,-0.1043200058,-0.1189469046,1.0240798660,10.8025581674
1520500649827910571,-0.0728572172,-0.1882462866,-0.1068435474,-0.0768570347,0.9833058135,10.7928910964
1520500649832926571,-0.0613089539,-0.1966919089,-0.1069294862,-0.0576159513,0.9461309619,10.8438743990
1520500649837941571,-0.0500114602,-0.2042612908,-0.1078199266,-0.0443877064,0.8909694721,10.8542587285
1520500649842959571,-0.0394586266,-0.2060076481,-0.1070412298,-0.0467928419,0.8010341277,10.8880720138
1520500649847974571,-0.0306585964,-0.2042631794,-0.1043387677,0.0073227052,0.7266832067,10.9085363764
1520500649852989571,-0.0221061249,-0.1996042353,-0.1018841538,-0.0059055396,0.5851856670,10.9215866976
1520500649858005571,-0.0183289898,-0.1949449766,-0.1002323099,0.0325766272,0.5156325253,10.9061720861
1520500649863022571,-0.0142978704,-0.1876602450,-0.0996431086,0.0385894657,0.4185016828,10.9259647245
1520500649868037571,-0.0115184976,-0.1783428699,-0.0966010990,0.0494125752,0.3333618698,10.9201316823
1520500649873053571,-0.0112532578,-0.1701934743,-0.0930222226,0.0397920335,0.2662107553,10.8993722146
1520500649878069571,-0.0135045699,-0.1646675239,-0.0894586869,0.0866921743,0.1690767283,10.8502003878
1520500649883086571,-0.0165101745,-0.1594332535,-0.0858959740,0.1251743411,0.1474892035,10.7870911005
1520500649888100571,-0.0227856551,-0.1562392263,-0.0826133012,0.1624539402,0.0923258406,10.6752162138
1520500649893117571,-0.0285509325,-0.1495578574,-0.0757877882,0.2586593572,0.1378856839,10.6056688811
1520500649898133571,-0.0353080798,-0.1350182413,-0.0656538343,0.3260031491,0.1666598091,10.5189866812
1520500649903149571,-0.0460817389,-0.1166892879,-0.0565656963,0.3380288263,0.2302133149,10.5129969358
1520500649908164571,-0.0548375273,-0.0925303994,-0.0479779221,0.3320159877,0.3129544725,10.5094883449
1520500649913181571,-0.0615792320,-0.0666267867,-0.0377572678,0.3272057169,0.3549247619,10.4932242228
1520500649918197571,-0.0678240903,-0.0404111966,-0.0351106090,0.2803055761,0.4064914529,10.5075761659
1520500649923213571,-0.0778357455,-0.0115717087,-0.0335191251,0.2189746227,0.3993013870,10.5046937080
1520500649928229571,-0.0825748729,0.0152367108,-0.0343879171,0.1768847527,0.3861141204,10.4411983302
1520500649933244571,-0.0853070793,0.0417647316,-0.0390503085,0.1167563671,0.3849196630,10.4301633128
1520500649938259571,-0.0888019756,0.0639311586,-0.0472617427,0.1420102891,0.3225623941,10.3509525234
1520500649943276571,-0.0925528831,0.0808445530,-0.0525367208,0.1865052944,0.2458139416,10.2645956214
1520500649948293571,-0.0948043559,0.0919323044,-0.0584000528,0.2261900290,0.1642693020,10.1596959137
1520500649953309571,-0.0937946638,0.0986498394,-0.0640322525,0.2779004406,0.0707323216,10.0860687356
1520500649958323571,-0.0912885323,0.0960392897,-0.0681151160,0.3524596388,-0.0431918255,10.0366440633
1520500649963341571,-0.0890434693,0.0852655042,-0.0706364837,0.4486650559,-0.1331348501,9.9230673957
1520500649968357571,-0.0832914469,0.0642858974,-0.0699956428,0.4955651967,-0.2638448090,9.8646311587
1520500649973372571,-0.0757830652,0.0395109682,-0.0664109642,0.5244268218,-0.4437181203,9.8494177669
1520500649978388571,-0.0685336820,0.0089075216,-0.0625997347,0.5087934415,-0.5780206301,9.7962422767
1520500649983404571,-0.0595299116,-0.0240212130,-0.0607033782,0.5196165509,-0.6775501282,9.8125040017
1520500649988418571,-0.0482630402,-0.0546121579,-0.0609578047,0.4787292487,-0.7722790372,9.7502385779
1520500649993436571,-0.0372498396,-0.0854880299,-0.0636489006,0.4029674828,-0.8718017918,9.7127223011
1520500649998452571,-0.0244793035,-0.1163573852,-0.0685076308,0.3692955868,-0.9857175096,9.6736482355
1520500650003468571,-0.0139671088,-0.1431409590,-0.0760364962,0.4029674828,-1.0708591021,9.6408634863
1520500650008482571,0.0003253926,-0.1614707193,-0.0843195307,0.3284082846,-1.1667845291,9.5626569580
1520500650013498571,0.0131102382,-0.1777526375,-0.0958307540,0.2851158469,-1.2603141103,9.5410888134
1520500650018516571,0.0231376654,-0.1870336688,-0.1105300400,0.2394182738,-1.2687045342,9.4834345932
1520500650023532571,0.0376886086,-0.1942644952,-0.1284687162,0.1576436693,-1.3226594844,9.4447702628
1520500650028547571,0.0464650537,-0.1947833585,-0.1509448071,0.0806793357,-1.3346448944,9.4362339282
1520500650033563571,0.0592672551,-0.1903412821,-0.1755549402,0.0337791949,-1.3286455395,9.4331981469
1520500650038578571,0.0690577440,-0.1824008592,-0.2012149792,-0.0167286490,-1.2926673931,9.4243575274
1520500650043594571,0.0765902834,-0.1715467486,-0.2271191328,0.0097278406,-1.2590935218,9.4380130021
1520500650048611571,0.0853841548,-0.1577812142,-0.2519212055,0.0289689240,-1.2039345608,9.4505555151
1520500650053626571,0.0906593525,-0.1466497170,-0.2729491093,0.0433997366,-1.1355846806,9.4271055230
1520500650058641571,0.0926712643,-0.1361168374,-0.2885644740,0.1540359662,-1.0444586252,9.4619662506
1520500650063658571,0.0921729556,-0.1250087291,-0.3017358122,0.2213797581,-1.0192819212,9.4496647718
1520500650068674571,0.0924341143,-0.1159676976,-0.3046433681,0.2442285447,-0.9401404328,9.4354194719
1520500650073691571,0.0921933771,-0.1072218896,-0.3061994842,0.2610644926,-0.8849812846,9.4235803719
1520500650078706571,0.0874271008,-0.1016903680,-0.3050661943,0.3031543626,-0.8598026138,9.4626590333
1520500650083723571,0.0836708497,-0.0961744780,-0.2979827615,0.3115723366,-0.8430153035,9.4265342646
1520500650088737571,0.0811767656,-0.0874572365,-0.2892539331,0.2430259770,-0.8490056670,9.4237208676
1520500650093754571,0.0774239018,-0.0796109988,-0.2818821697,0.2129617841,-0.8442067638,9.4054145134
1520500650098770571,0.0726633767,-0.0743912577,-0.2731758178,0.1961258361,-0.8597942781,9.4427821921
1520500650103786571,0.0674041665,-0.0674285054,-0.2625613726,0.1853027267,-0.8645899968,9.4057036085
1520500650108801571,0.0651616400,-0.0604682139,-0.2505997986,0.1299846119,-0.8597891268,9.4132102274
1520500650113818571,0.0626645215,-0.0534970943,-0.2426959464,0.0915024451,-0.8489938658,9.4368171443
1520500650118834571,0.0609285483,-0.0450862390,-0.2282892773,0.0758690649,-0.8238106994,9.4462419055
1520500650123849571,0.0571791932,-0.0387151347,-0.2141649820,0.1143512317,-0.7974326072,9.4423551864
1520500650128865571,0.0564445380,-0.0352668921,-0.1962808757,0.0963127160,-0.7674526917,9.5424459088
1520500650133881571,0.0564628541,-0.0329860777,-0.1775954242,0.1143512317,-0.7374755860,9.6108075928
1520500650138896571,0.0542211469,-0.0315897725,-0.1553953448,0.1179589348,-0.6859128288,9.6455865146
1520500650143913571,0.0494629779,-0.0319391169,-0.1345566662,0.0566279814,-0.6427389969,9.6263849291
1520500650148929571,0.0497309619,-0.0319943792,-0.1139956448,0.0602356846,-0.6031676439,9.6948777190
1520500650153945571,0.0487455685,-0.0323531732,-0.0891057786,0.0866921743,-0.5600006492,9.6957402555
1520500650158960571,0.0439832204,-0.0356156344,-0.0685598767,0.0638433877,-0.5240246569,9.6250367902
1520500650163977571,0.0397228113,-0.0388757134,-0.0488265459,-0.0275517585,-0.5072295728,9.5759378137
1520500650168992571,0.0352147140,-0.0383427930,-0.0309576696,-0.0997058212,-0.5084230936,9.4662376108
1520500650174009571,0.0317031951,-0.0418786641,-0.0169094259,-0.0708441961,-0.5611875201,9.4381166855
