#timestamp [ns],w_RS_S_x [rad s^-1],w_RS_S_y [rad s^-1],w_RS_S_z [rad s^-1],a_RS_S_x [m s^-2],a_RS_S_y [m s^-2],a_RS_S_z [m s^-2]
1520521184762592152,0.0605433625,-0.0451833051,-0.0840851583,0.4715138424,0.0179550637,9.7913753960
1520521184767608152,0.0567803840,-0.0431574736,-0.0794633156,0.4787292487,0.0563269953,9.8110241940
1520521184772625152,0.0545177222,-0.0454967202,-0.0767714408,0.4703112747,0.0455353871,9.8483052600
1520521184777639152,0.0504966273,-0.0478388414,-0.0732646613,0.5111985769,0.0095579900,9.8200509134
1520521184782656152,0.0432061817,-0.0528083453,-0.0684190927,0.5400602021,-0.0000373812,9.8128064830
1520521184787672152,0.0371791732,-0.0557515054,-0.0584199240,0.5532884469,0.0239443970,9.8091679087
1520521184792689152,0.0324111248,-0.0560680704,-0.0497558107,0.6134168325,0.0167448714,9.7621039138
1520521184797704152,0.0286506907,-0.0549287758,-0.0405413570,0.5797449366,0.0179466343,9.7647547739
1520521184802720152,0.0246406317,-0.0517462458,-0.0326636045,0.5821500720,0.0383318342,9.7205500148
1520521184807735152,0.0241521867,-0.0465248310,-0.0239651869,0.5448704729,0.0467287206,9.7511204290
1520521184812751152,0.0216509792,-0.0415890325,-0.0177001716,0.5448704729,0.0467287206,9.7092832466
1520521184817767152,0.0196533809,-0.0360709965,-0.0111610977,0.5436679052,0.0455296739,9.7011611133
1520521184822784152,0.0191616819,-0.0325949751,-0.0035582021,0.5136037124,0.0575234196,9.7676842518
1520521184827798152,0.0151496040,-0.0291130479,0.0013457686,0.5472756083,0.0323388482,9.7522731949
1520521184832815152,0.0096282786,-0.0276757736,0.0078602534,0.6013911554,-0.0360163706,9.8157310372
1520521184837830152,0.0046145650,-0.0230352579,0.0152098965,0.5953783168,-0.0264227789,9.8146180638
1520521184842846152,-0.0021583266,-0.0178097486,0.0214850691,0.5929731814,0.0107507615,9.7588223146
1520521184847863152,-0.0094351371,-0.0140435442,0.0285616975,0.5881629106,-0.0276213574,9.7914465844
1520521184852878152,-0.0169640774,-0.0091038874,0.0326716801,0.5496807438,-0.0492028879,9.7964907701
1520521184857895152,-0.0229828060,-0.0027081740,0.0373310696,0.5472756083,-0.0528001218,9.7825719608
1520521184862911152,-0.0292545936,0.0022297898,0.0422503562,0.5388576343,-0.0432063428,9.8024009887
1520521184867925152,-0.0360323661,0.0048372089,0.0468822457,0.6110116971,-0.0683939113,9.7947503777
1520521184872942152,-0.0377876826,0.0045312950,0.0520236617,0.5893654783,-0.1031672977,9.7880221158
1520521184877958152,-0.0400489369,0.0030654735,0.0549927517,0.6062014263,-0.0887789239,9.7820334932
1520521184882972152,-0.0397957524,0.0021812204,0.0587732582,0.6013911554,-0.0899776896,9.7971893542
1520521184887990152,-0.0413080852,-0.0042436702,0.0638675227,0.5725295303,-0.1391401992,9.7614917559
1520521184893006152,-0.0418193940,-0.0106543267,0.0638195483,0.5677192594,-0.1583260713,9.8080430437
1520521184898021152,-0.0423358935,-0.0205601406,0.0632038051,0.6194296711,-0.1595292391,9.7773251528
1520521184903037152,-0.0421039968,-0.0348378840,0.0630944071,0.5785423689,-0.1990976886,9.8068153118
1520521184908053152,-0.0413660721,-0.0470779241,0.0638112751,0.5773398012,-0.1751147865,9.7603178719
1520521184913069152,-0.0388692280,-0.0581459094,0.0623694011,0.5593012855,-0.2230789985,9.7454323499
1520521184918084152,-0.0323446950,-0.0639666695,0.0606895292,0.5773398012,-0.2206821226,9.7127144046
1520521184923101152,-0.0243129844,-0.0700774950,0.0587340880,0.5893654783,-0.2086916550,9.6637756146
1520521184928117152,-0.0132610266,-0.0735683204,0.0581457834,0.5881629106,-0.1919035954,9.6033394633
1520521184933131152,0.0008150520,-0.0709396178,0.0578691088,0.5953783168,-0.1895058765,9.5219168175
1520521184938148152,0.0184127014,-0.0659791889,0.0578742306,0.6001885877,-0.2278787447,9.4986645370
1520521184943165152,0.0360153650,-0.0578157155,0.0587154440,0.6242399420,-0.2182874945,9.4844753537
1520521184948181152,0.0546270541,-0.0458594789,0.0579604153,0.5845552074,-0.2146869824,9.4592909456
1520521184953197152,0.0767585578,-0.0315656887,0.0553228159,0.4871472227,-0.1655146386,9.5113254462
1520521184958213152,0.0943713831,-0.0164111720,0.0570290211,0.4979703321,-0.1691129028,9.5344664878
1520521184963229152,0.1044354817,-0.0064957892,0.0554626617,0.5304396603,-0.1715137125,9.5736656844
1520521184968243152,0.1147561600,0.0077926452,0.0531175441,0.5111985769,-0.2014907245,9.6773130107
1520521184973260152,0.1215552674,0.0197493534,0.0504906301,0.4871472227,-0.2122811151,9.7472862732
1520521184978276152,0.1215648646,0.0290838563,0.0467741263,0.5268319572,-0.2110850655,9.8131410423
1520521184983291152,0.1172979790,0.0340408185,0.0449260318,0.5136037124,-0.2158805969,9.9015974158
1520521184988307152,0.1034747871,0.0340412309,0.0427873344,0.5364524989,-0.2698436955,9.9421026784
1520521184993324152,0.0934211678,0.0349209159,0.0392955760,0.5460730406,-0.2386667938,9.9780050977
1520521184998339152,0.0765809393,0.0343395631,0.0363463954,0.5364524989,-0.2338694828,9.9862290685
1520521185003356152,0.0584831582,0.0320050402,0.0350094853,0.5544910146,-0.2458622919,9.9465522916
1520521185008371152,0.0388819398,0.0328751564,0.0336998295,0.5605038532,-0.2362696369,9.9418358358
1520521185013387152,0.0212943227,0.0357842951,0.0329430933,0.5268319572,-0.2278730314,9.8991560657
1520521185018402152,0.0094907540,0.0401453366,0.0348921968,0.5160088478,-0.2158807842,9.8318453685
1520521185023419152,-0.0018070925,0.0471304926,0.0363192829,0.5136037124,-0.2158805969,9.7853830204
1520521185028434152,-0.0103417536,0.0526568952,0.0388123032,0.5268319572,-0.2494575590,9.7283419525
1520521185033450152,-0.0166067628,0.0637190331,0.0418844534,0.4895523581,-0.1918959153,9.6728657712
1520521185038466152,-0.0196049695,0.0768316122,0.0414490011,0.4282214047,-0.1475229429,9.6676087438
1520521185043483152,-0.0195834622,0.0902243740,0.0456094515,0.4835395195,-0.0839728088,9.6274954417
1520521185048498152,-0.0157780139,0.1082538131,0.0598086685,0.6663298119,0.1414513544,9.4813905871
1520521185053514152,-0.0127229965,0.1251006649,0.0802229489,0.4655010038,0.0419383405,9.6019810700
1520521185058530152,-0.0107006957,0.1291597114,0.0880961693,0.4655010038,-0.2134785697,9.6928773677
1520521185063546152,-0.0054066135,0.1416920421,0.0879114149,0.4715138424,-0.3309947995,9.7150141728
1520521185068561152,-0.0031282544,0.1521747584,0.0909632503,0.2225823258,-0.2926029183,9.7859661939
1520521185073578152,-0.0028686835,0.1585867733,0.0904705997,0.2490388155,-0.3513628596,9.7520638056
1520521185078594152,-0.0023655487,0.1623902661,0.0848171025,0.2899261178,-0.3585608866,9.7400514102
1520521185083609152,-0.0000966339,0.1714408265,0.0786592621,0.3777135608,-0.4329144300,9.7113779852
1520521185088626152,0.0021699483,0.1784502383,0.0730269518,0.4486650559,-0.4257251134,9.7188153785
1520521185093642152,0.0029293530,0.1857497155,0.0676702108,0.5063883061,-0.3405906390,9.7123597929
1520521185098657152,0.0034428651,0.1950800447,0.0655760490,0.4727164101,-0.2950206804,9.6859137887
1520521185103673152,0.0052139259,0.2047000655,0.0642934142,0.4198034308,-0.2770294530,9.7398698930
1520521185108688152,0.0024634582,0.2166537608,0.0614136898,0.3524596388,-0.2434482762,9.7358440588
1520521185113706152,-0.0000419166,0.2230668780,0.0601145355,0.3260031491,-0.2290565306,9.7477089775
1520521185118720152,-0.0043110917,0.2256898503,0.0593308398,0.3187877429,-0.2614327601,9.7466486361
1520521185123737152,-0.0088305541,0.2288947648,0.0588226030,0.2730901698,-0.2386455330,9.7947191129
1520521185128753152,-0.0148612869,0.2288909450,0.0593748961,0.3260031491,-0.2578359008,9.8046820954
1520521185133770152,-0.0213963776,0.2274292772,0.0601875532,0.3007492272,-0.2482408105,9.8014321150
1520521185138785152,-0.0259245120,0.2224674122,0.0625930748,0.2490388155,-0.2662238895,9.8066015483
1520521185143800152,-0.0281951753,0.2163496363,0.0617389529,0.2658747635,-0.2662252007,9.7971405259
1520521185148816152,-0.0319733258,0.2096448584,0.0622359146,0.2478362478,-0.2686220767,9.7880212888
1520521185153832152,-0.0337472877,0.1988636702,0.0618863816,0.2682798989,-0.2614288264,9.7808424231
1520521185158848152,-0.0345093701,0.1918657756,0.0634577031,0.2466336801,-0.2722194043,9.7403885998
1520521185163864152,-0.0352757178,0.1825404469,0.0636585104,0.1877078622,-0.2506302873,9.7548868269
1520521185168878152,-0.0330273107,0.1743898505,0.0608866045,0.1624539402,-0.1738833334,9.8166514249
1520521185173895152,-0.0312752168,0.1682670941,0.0624599281,0.1359974505,-0.0983354262,9.8609967381
1520521185178910152,-0.0297820352,0.1557301374,0.0653375399,0.0951101483,-0.0455700631,9.9473419117
1520521185183926152,-0.0275393638,0.1373541306,0.0724980242,0.0157406792,0.0036008758,10.0387137309
1520521185188943152,-0.0253007421,0.1151864829,0.0809823379,-0.1141366338,0.0527757484,10.1084964274
1520521185193959152,-0.0220615825,0.0918638888,0.0856682498,-0.2993320616,0.0551884529,10.1800253046
1520521185198974152,-0.0226049211,0.0615582442,0.0859790742,-0.3774989629,-0.0335418505,10.2517634456
1520521185203991152,-0.0229019320,0.0277568122,0.0859922089,-0.3919297755,-0.1174805562,10.2973093743
1520521185209007152,-0.0224437643,-0.0028288967,0.0822407548,-0.4159811297,-0.2385918658,10.2941751468
1520521185214022152,-0.0237409877,-0.0287444011,0.0752815865,-0.4520581611,-0.3225288857,10.2144202194
1520521185219039152,-0.0245383811,-0.0552359218,0.0658821254,-0.4749069477,-0.3177305444,10.1367742932
1520521185224055152,-0.0205606028,-0.0776294345,0.0502823642,-0.4845274894,-0.3944747822,10.0753491418
1520521185229069152,-0.0163227674,-0.0924417521,0.0328461152,-0.4412350517,-0.3728936264,10.0075023623
1520521185234085152,-0.0110685244,-0.1014369117,0.0195106495,-0.3402193638,-0.3812954768,9.8612593286
1520521185239102152,-0.0055623670,-0.1101413169,0.0064474860,-0.2043292123,-0.3693146561,9.7994934783
1520521185244118152,0.0022194247,-0.1092320602,-0.0054643326,-0.1442008266,-0.3597262157,9.7338188093
1520521185249134152,0.0097515446,-0.1074502052,-0.0168279234,-0.0973006858,-0.3117642515,9.6461547419
1520521185254148152,0.0208056744,-0.1033380810,-0.0273686260,0.0133355438,-0.2566124088,9.6415376553
1520521185259165152,0.0321225349,-0.0934098227,-0.0335365992,0.1191615025,-0.2194472977,9.5846884510
1520521185264181152,0.0426907288,-0.0817430221,-0.0361727371,0.1925181330,-0.1762839557,9.5583651794
1520521185269197152,0.0532621296,-0.0695014653,-0.0358284240,0.2322028675,-0.1391136934,9.5532940872
1520521185274213152,0.0623219111,-0.0595893901,-0.0363107330,0.2454311124,-0.0923482471,9.5507954394
1520521185279228152,0.0711342161,-0.0488120010,-0.0335393552,0.2815081438,-0.0575759847,9.6061932867
1520521185284244152,0.0759260496,-0.0371591198,-0.0318360241,0.2839132792,-0.0791606996,9.5957316291
1520521185289261152,0.0782014605,-0.0290082081,-0.0285314275,0.2670773312,-0.0551765799,9.6795464778
1520521185294277152,0.0792276300,-0.0179548699,-0.0211440780,0.2105566487,-0.0611678800,9.7486689554
1520521185299292152,0.0764688785,-0.0168035265,-0.0162602255,0.1636565079,-0.0383805592,9.8234804483
1520521185304308152,0.0716865402,-0.0243901361,-0.0130626073,0.1143512317,-0.0635586680,9.8960378369
1520521185309324152,0.0616309724,-0.0296506507,-0.0087552195,0.0494125752,-0.0779432955,9.9024946617
1520521185314340152,0.0500673058,-0.0343253448,-0.0057933148,-0.0167286490,-0.0839338463,9.9693864919
1520521185319355152,0.0384982291,-0.0424944680,-0.0036697247,-0.0059055396,-0.0815364084,9.9355766331
1520521185324372152,0.0281845017,-0.0518300939,-0.0010162688,0.0470074397,-0.1175147421,9.9339345468
1520521185329387152,0.0158645590,-0.0597168690,0.0043574952,0.0037150021,-0.1474898810,9.9901680721
1520521185334403152,0.0042960154,-0.0655461748,0.0032523192,0.0073227052,-0.1642781279,9.9180964026
1520521185339420152,-0.0017358622,-0.0667169896,0.0043368118,0.0277663563,-0.1402969116,9.8574425442
1520521185344436152,-0.0050008102,-0.0649685055,0.0038151259,0.0061201375,-0.1211089790,9.8599588137
1520521185349452152,-0.0092707733,-0.0614648237,0.0006031865,0.0373868980,-0.1235096950,9.8213060704
1520521185354468152,-0.0135403443,-0.0591332359,-0.0001827322,0.1263769088,-0.1151226428,9.8053238395
1520521185359483152,-0.0135373060,-0.0559236356,-0.0017815537,0.1949232684,-0.0659632241,9.7999601325
1520521185364499152,-0.0125243718,-0.0518511427,0.0009531616,0.2538490864,-0.0443832858,9.7354476192
1520521185369514152,-0.0127713660,-0.0512801270,0.0052868088,0.3464468003,-0.0419922168,9.7426789988
1520521185374531152,-0.0110033122,-0.0495529835,0.0134132572,0.3801186962,-0.0395965584,9.6714581373
1520521185379547152,-0.0044579853,-0.0460763907,0.0218147222,0.4366393787,-0.0144190115,9.6104519579
1520521185384562152,0.0010762069,-0.0469709597,0.0301847078,0.4943626290,0.0311438289,9.5796299375
1520521185389579152,0.0088785964,-0.0443738556,0.0407415370,0.5376550666,0.0383352996,9.5454993648
1520521185394594152,0.0169359306,-0.0412033536,0.0548194424,0.5977834523,0.0647117060,9.4949161965
1520521185399610152,0.0252405179,-0.0403609157,0.0677969128,0.5689218272,0.0515234091,9.5184528597
1520521185404625152,0.0363079457,-0.0386345000,0.0775293678,0.5364524989,-0.0360113129,9.4653956360
1520521185409642152,0.0481323161,-0.0307712316,0.0808140058,0.4077777536,-0.2086775123,9.4040606884
1520521185414659152,0.0637209470,-0.0217183668,0.0757136126,0.3849289671,-0.3597674261,9.3451610796
1520521185419673152,0.0793027604,-0.0170333562,0.0694976895,0.4835395195,-0.3238008935,9.4290026934
1520521185424690152,0.0898581894,-0.0170321348,0.0705602707,0.5869603429,-0.2338734165,9.5383120338
1520521185429705152,0.0938867016,-0.0158854174,0.0781369806,0.5304396603,-0.1751111338,9.5643720408
1520521185434720152,0.0986640100,-0.0173557665,0.0837984612,0.4679061393,-0.1811019656,9.5917158614
1520521185439736152,0.1004260421,-0.0179502297,0.0883900282,0.4041700505,-0.1643090357,9.6887778068
1520521185444754152,0.0986765357,-0.0130068515,0.0919481844,0.2947363886,-0.1475125467,9.7432852181
1520521185449769152,0.0926517383,-0.0101033819,0.0949576214,0.2550516541,-0.1343189112,9.8180358353
1520521185454785152,0.0856164218,-0.0112804179,0.0982083481,0.2358105707,-0.0839535149,9.8867404972
1520521185459799152,0.0765654338,-0.0168311948,0.1022411000,0.1564411016,-0.0575662440,9.9711616702
1520521185464836152,0.0609738155,-0.0264595443,0.1046315881,0.1143512317,-0.0815457744,10.0936198492
1520521185469833152,0.0421096867,-0.0381193959,0.1034954853,0.1468205599,-0.1175225159,10.1316896433
1520521185474849152,0.0229894173,-0.0541537559,0.1036792325,0.1456179922,-0.1534966350,10.1956543460
1520521185479864152,0.0041175888,-0.0716420264,0.1027692139,0.1504282631,-0.1774798181,10.1747123214
1520521185484879152,-0.0160108201,-0.0885451065,0.1007837916,0.0794767680,-0.2242407686,10.1545299328
1520521185489897152,-0.0348810138,-0.1022337232,0.0955739388,0.0446023043,-0.2410260184,10.1176971436
1520521185494912152,-0.0504856831,-0.1156238481,0.0881958745,0.0650459554,-0.2698069808,10.0675540318
1520521185499927152,-0.0643278263,-0.1255122988,0.0792179448,0.0866921743,-0.3597441984,9.9605137974
1520521185504944152,-0.0766590480,-0.1313127627,0.0672923331,0.0554254137,-0.4352876100,9.8679202809
1520521185509960152,-0.0819434663,-0.1260225608,0.0497566666,-0.0504005450,-0.5551934102,9.7458800007
1520521185514975152,-0.0804474737,-0.1218850406,0.0284118637,-0.1694547486,-0.5635781208,9.6959126527
1520521185519991152,-0.0797071300,-0.1162785098,0.0024802961,-0.1935061029,-0.6523126390,9.5904781851
1520521185525007152,-0.0749522933,-0.1141619191,-0.0253792373,-0.2560396239,-0.7782175131,9.5052109760
1520521185530023152,-0.0626603343,-0.1114508645,-0.0564948770,-0.2572421916,-0.8141916322,9.5180413447
1520521185535038152,-0.0498627864,-0.1067006496,-0.0873253426,-0.2271779988,-0.8129948332,9.5282068446
1520521185540056152,-0.0340616216,-0.1115685849,-0.1168820413,-0.1550239360,-0.8106021720,9.5437722179
1520521185545072152,-0.0155022424,-0.1213911595,-0.1456700287,-0.1141366338,-0.7998130926,9.5549851614
1520521185550087152,0.0065831024,-0.1274330979,-0.1711890994,-0.0732493316,-0.7770326090,9.4941334864
1520521185555102152,0.0284162192,-0.1361063368,-0.1934811603,-0.0708441961,-0.6918938263,9.5091349246
1520521185560118152,0.0560316241,-0.1447853239,-0.2128079510,-0.0431851387,-0.6199475550,9.4379047668
1520521185565134152,0.0854088415,-0.1540580457,-0.2278137207,0.0133355438,-0.4856482296,9.4988172927
1520521185570151152,0.1117750402,-0.1630544047,-0.2376712945,0.1480231276,-0.2949953922,9.5995890694
1520521185575166152,0.1343759670,-0.1738224006,-0.2394188291,0.2682798989,-0.1654975925,9.7168309585
1520521185580183152,0.1524524053,-0.1889789622,-0.2352392993,0.3452442326,-0.0479878252,9.8031280362
1520521185585197152,0.1677688612,-0.2035654925,-0.2267214550,0.4787292487,0.0179545018,9.8133859008
1520521185590215152,0.1868620914,-0.2170039472,-0.2111675259,0.5749346657,0.0743066089,9.8519074318
1520521185595229152,0.1994230417,-0.2316206978,-0.1918227119,0.6218348065,0.0922900625,9.8584062582
1520521185600246152,0.2109878138,-0.2404137939,-0.1710788397,0.6567092702,0.0958847676,9.8778197508
1520521185605261152,0.2223108371,-0.2410431226,-0.1521660757,0.6434810254,0.1402539936,9.9360124386
1520521185610278152,0.2293674492,-0.2399367444,-0.1291738505,0.7769660415,0.2217851461,9.9439308139
1520521185615293152,0.2309001563,-0.2332867565,-0.1096462154,0.8539303751,0.1810083775,9.9199785687
1520521185620309152,0.2319422427,-0.2140906770,-0.0962446097,0.7444967133,0.1762203388,9.9024541029
1520521185625325152,0.2282026925,-0.2027762338,-0.0782948794,0.8623483491,0.2841337983,9.8919046152
1520521185630342152,0.2204690630,-0.1731119680,-0.0580332600,0.7565223904,0.2673540744,9.8894645991
1520521185635356152,0.2079409616,-0.1565553207,-0.0402977247,0.7613326612,0.2469683126,9.9394098477
1520521185640373152,0.1924077928,-0.1309611071,-0.0246520403,0.7384838747,0.2205890028,10.0314673416
1520521185645389152,0.1758620386,-0.1103186390,-0.0098539191,0.7048119787,0.1342535148,10.1690122622
1520521185650405152,0.1532641384,-0.1007314783,-0.0024338130,0.6591144056,0.1414519164,10.2229086602
1520521185655420152,0.1243884758,-0.0873573232,0.0044857695,0.5833526397,-0.0024390338,10.3051364762
1520521185660437152,0.0982632927,-0.0815464279,0.0070136834,0.4823369518,-0.0479985025,10.3898385006
1520521185665451152,0.0708759466,-0.0774734056,0.0054724041,0.4173982953,-0.1067513256,10.4300407657
1520521185670469152,0.0402190851,-0.0719294435,-0.0017331562,0.3861315348,-0.2242646519,10.3851360782
1520521185675484152,0.0105632436,-0.0678347259,-0.0116571578,0.4294239725,-0.2962164491,10.3255155149
1520521185680499152,-0.0193393215,-0.0605356054,-0.0212856929,0.3933469411,-0.3609672222,10.2573633176
1520521185685515152,-0.0437201691,-0.0558458532,-0.0350026921,0.3704981545,-0.4161259021,10.1553708353
1520521185690533152,-0.0670933987,-0.0482367629,-0.0505931485,0.3644853160,-0.4497013656,10.0834091769
1520521185695548152,-0.0856899706,-0.0391688792,-0.0661813573,0.3151800397,-0.4472992447,9.9990502369
1520521185700563152,-0.1002715204,-0.0327145967,-0.0845025004,0.3392313940,-0.4257165903,9.9034992834
1520521185705579152,-0.1118284712,-0.0218985629,-0.0990082554,0.3548647743,-0.3945401569,9.8777495478
1520521185710596152,-0.1178565851,-0.0113739329,-0.1127148636,0.3957520765,-0.3130017925,9.8400834543
1520521185715611152,-0.1236317341,-0.0017328276,-0.1229115112,0.4378419465,-0.2902214026,9.7908415138
1520521185720627152,-0.1236249909,0.0076111450,-0.1301451117,0.4727164101,-0.2434576422,9.7648892960
1520521185725642152,-0.1221148182,0.0108235214,-0.1325583712,0.5172114155,-0.1655169801,9.7550830502
1520521185730659152,-0.1168296706,0.0154826424,-0.1306387817,0.5111985769,-0.1571225289,9.7028369122
1520521185735674152,-0.1095378764,0.0157644988,-0.1260508134,0.5148062801,-0.1391357035,9.7202164162
1520521185740691152,-0.0994850020,0.0154726819,-0.1244484300,0.5280345249,-0.1055608019,9.7177306312
1520521185745706152,-0.0864105669,0.0163330159,-0.1174318371,0.5039831707,-0.1535245456,9.7459029608
1520521185750723152,-0.0718305382,0.0157377465,-0.1106997058,0.4630958684,-0.1775041697,9.7242435844
1520521185755738152,-0.0542394045,0.0142804315,-0.1080380329,0.4186008630,-0.2278646020,9.6991586167
1520521185760754152,-0.0366490589,0.0137038259,-0.1078046038,0.3344211231,-0.2338537479,9.7046323932
1520521185765769152,-0.0218277479,0.0110930014,-0.1100165154,0.2574567895,-0.2542331409,9.7205092669
1520521185770786152,-0.0039937012,0.0099563066,-0.1181749220,0.2249874613,-0.3213824758,9.7232150744
1520521185775802152,0.0143446173,0.0108631425,-0.1276714299,0.1672642110,-0.3237762610,9.7598057183
1520521185780817152,0.0291597418,0.0100290341,-0.1404212929,0.1756821850,-0.3201794953,9.8248003364
1520521185785832152,0.0386973244,0.0080229494,-0.1515469717,0.1889104299,-0.3381676319,9.9013906218
1520521185790849152,0.0492365778,0.0016384778,-0.1597318589,0.2177720550,-0.3297758968,9.9301551139
1520521185795865152,0.0524835077,-0.0059041890,-0.1716997459,0.2670773312,-0.2902081029,9.9842573843
1520521185800881152,0.0552328502,-0.0117074867,-0.1804068102,0.3296108523,-0.2734250073,10.0394152604
1520521185805897152,0.0557239729,-0.0172304841,-0.1853198084,0.3704981545,-0.2434496811,10.1261488516
1520521185810912152,0.0519428390,-0.0230472681,-0.1899565495,0.3897392379,-0.1786975968,10.1503034494
1520521185815928152,0.0438930554,-0.0268282195,-0.1937581570,0.4270188370,-0.1619125343,10.1301677747
1520521185820945152,0.0335776227,-0.0335239023,-0.1975777949,0.4655010038,-0.1523224081,10.1042166912
1520521185825960152,0.0207520165,-0.0384737193,-0.2008383352,0.5268319572,-0.1295435167,10.1268403949
1520521185830977152,0.0101993083,-0.0390693647,-0.1975766282,0.5388576343,-0.1007650831,10.1081009769
1520521185835991152,-0.0011119147,-0.0425769654,-0.1951473896,0.5340473635,-0.0887733043,10.0907039445
1520521185841009152,-0.0084001531,-0.0431633181,-0.1948677549,0.5496807438,-0.0551985900,9.9963853769
1520521185846024152,-0.0169427844,-0.0460987216,-0.1881104698,0.5773398012,-0.0779844122,9.9554633397
1520521185851040152,-0.0222164609,-0.0466981268,-0.1826941969,0.6049988586,-0.1091642174,9.9436030867
1520521185856056152,-0.0239691860,-0.0467199405,-0.1748450988,0.6001885877,-0.0971724385,9.8797202960
1520521185861072152,-0.0249699042,-0.0473205858,-0.1683545766,0.5845552074,-0.0647944295,9.8438144270
1520521185866087152,-0.0252137778,-0.0455891310,-0.1621182158,0.4871472227,-0.0491980175,9.8040722968
1520521185871104152,-0.0206812094,-0.0409346759,-0.1585739508,0.4847420873,-0.0360072856,9.7866506848
1520521185876119152,-0.0184083115,-0.0365805043,-0.1520517035,0.4186008630,-0.0527901002,9.8035808491
1520521185881136152,-0.0163886413,-0.0310492381,-0.1498488315,0.4005623473,-0.0839663463,9.7840303805
1520521185886150152,-0.0126126941,-0.0272641330,-0.1482036568,0.4222085662,-0.1055525598,9.7873271695
1520521185891167152,-0.0133538375,-0.0199892847,-0.1446295829,0.3837263994,-0.1391254945,9.8016802002
1520521185896182152,-0.0113364999,-0.0164991671,-0.1419011807,0.3680930191,-0.1451199791,9.8541346906
1520521185901200152,-0.0115801461,-0.0118414837,-0.1402418692,0.4029674828,-0.1930883122,9.7643569330
1520521185906216152,-0.0155897620,-0.0071969320,-0.1342468226,0.3897392379,-0.2650357073,9.7424751139
1520521185911232152,-0.0196008717,-0.0028401227,-0.1296067285,0.3717007222,-0.2794239875,9.7449890097
1520521185916246152,-0.0210972327,0.0029753222,-0.1252307321,0.3199903106,-0.2914113643,9.6908832547
1520521185921263152,-0.0213396479,0.0082143178,-0.1230258827,0.3272057169,-0.3022041901,9.6815263968
1520521185926278152,-0.0248499123,0.0140406299,-0.1229748869,0.2622670604,-0.2902077282,9.6484446017
1520521185931295152,-0.0271041216,0.0198688913,-0.1234673164,0.2129617841,-0.2866064669,9.6675153043
1520521185936310152,-0.0275999448,0.0245293899,-0.1228897218,0.2490388155,-0.3285791915,9.6323407609
1520521185941326152,-0.0303576770,0.0291897309,-0.1225784726,0.2334054352,-0.3405693782,9.5929917255
1520521185946341152,-0.0301008739,0.0350255327,-0.1255104825,0.2610644926,-0.3129913026,9.6345327968
1520521185951358152,-0.0293422298,0.0370589638,-0.1230614080,0.2718876021,-0.2854119158,9.5937255181
1520521185956374152,-0.0283340902,0.0379276838,-0.1208922385,0.2694824666,-0.2902082902,9.6751036823
1520521185961390152,-0.0288329909,0.0411349020,-0.1216784888,0.2730901698,-0.2842128691,9.6797112963
1520521185966404152,-0.0300897517,0.0399645010,-0.1200617721,0.2851158469,-0.2878112269,9.6493820109
1520521185971421152,-0.0303365655,0.0422911082,-0.1184202454,0.2538490864,-0.2542328599,9.6670857602
1520521185976437152,-0.0288194459,0.0489928146,-0.1181013688,0.2394182738,-0.2626257190,9.6590993986
1520521185981454152,-0.0328343348,0.0521913701,-0.1161756260,0.2526465187,-0.2650250301,9.6531622619
1520521185986468152,-0.0343395325,0.0539383581,-0.1158889413,0.2646721958,-0.2422422986,9.6251315390
1520521185991486152,-0.0368473380,0.0545055740,-0.1104689100,0.3199903106,-0.2146663772,9.6129447720
1520521185996501152,-0.0393568136,0.0544929345,-0.1061355084,0.3055594980,-0.2542368873,9.6038266693
1520521186001517152,-0.0418657639,0.0538931554,-0.1001832776,0.3211928783,-0.2266578751,9.6396740713
1520521186006532152,-0.0431203292,0.0527154701,-0.0958611020,0.2779004406,-0.2314510651,9.6098843879
1520521186011549152,-0.0438742296,0.0512516963,-0.0934359042,0.2562542218,-0.2542330472,9.6554409106
1520521186016563152,-0.0448808402,0.0474509203,-0.0888636572,0.2466336801,-0.2326477703,9.6485406392
1520521186021580152,-0.0468925129,0.0442347048,-0.0850967348,0.2586593572,-0.2050684772,9.6286402466
1520521186026596152,-0.0504107867,0.0433555307,-0.0837441405,0.2117592164,-0.2086622457,9.6686131463
1520521186031613152,-0.0526738404,0.0421883780,-0.0834782864,0.1877078622,-0.2062620917,9.7013849394
1520521186036628152,-0.0531776260,0.0413140275,-0.0834840222,0.2153669196,-0.1798831565,9.7324678844
1520521186041645152,-0.0569540554,0.0378232207,-0.0862091574,0.1865052944,-0.1882748917,9.7106762560
1520521186046660152,-0.0582153011,0.0343261141,-0.0862335008,0.1865052944,-0.2014654363,9.7571748769
1520521186051676152,-0.0609860569,0.0290779243,-0.0854567447,0.1877078622,-0.1774827215,9.7664369367
1520521186056691152,-0.0687786140,0.0252774037,-0.0819540797,0.2177720550,-0.2122601353,9.7289896146
1520521186061707152,-0.0720468239,0.0223535373,-0.0787236924,0.1901129976,-0.2554270364,9.7211659194
1520521186066723152,-0.0755703824,0.0156379315,-0.0741690090,0.1684667787,-0.2818064398,9.7109430403
1520521186071739152,-0.0775934007,0.0060199976,-0.0736975452,0.1708719142,-0.2710143633,9.6958012348
1520521186076756152,-0.0788549601,0.0001823452,-0.0702225767,0.1889104299,-0.2878037341,9.7084256132
1520521186081772152,-0.0796099661,-0.0042047436,-0.0643025131,0.1744796173,-0.3021922953,9.6539593401
1520521186086786152,-0.0763510005,-0.0100311542,-0.0643530422,0.1071358254,-0.2614162759,9.6394671943
1520521186091804152,-0.0688229893,-0.0176020130,-0.0652364818,0.0866921743,-0.1978602413,9.6570363646
1520521186096819152,-0.0620374818,-0.0176008115,-0.0647079915,0.0782742003,-0.2086518495,9.6315616570
1520521186101835152,-0.0512314126,-0.0175973064,-0.0644575147,0.1215666379,-0.2026595191,9.5985943976
1520521186106851152,-0.0371577098,-0.0167169109,-0.0647475279,0.0987178514,-0.1990603183,9.5883539901
1520521186111867152,-0.0248382140,-0.0117556358,-0.0658147884,0.0915024451,-0.2278391265,9.5477772461
1520521186116881152,-0.0097488484,-0.0044702143,-0.0638933934,0.0927050128,-0.2350340627,9.5512589890
1520521186121899152,0.0061003962,0.0068934290,-0.0614011836,0.1576436693,-0.1678872566,9.5656693043
1520521186126914152,0.0181776806,0.0112390571,-0.0502978583,0.3320159877,0.0299573325,9.6695342300
1520521186131930152,0.0244784243,0.0138151744,-0.0321629436,0.2105566487,0.0083822646,9.7056018074
1520521186136945152,0.0325399888,0.0225329088,-0.0221009880,0.1299846119,-0.1307117493,9.5659022711
1520521186141961152,0.0385905118,0.0341789980,-0.0176945317,0.1311871796,-0.1690843365,9.6344944782
1520521186146978152,0.0403659635,0.0437844501,-0.0135662485,0.1131486640,-0.2194468294,9.7358256903
1520521186151993152,0.0421360050,0.0498954732,-0.0102762800,0.0121329761,-0.2781968427,9.8193784334
1520521186157008152,0.0401275079,0.0519372909,-0.0113391682,0.0578305492,-0.2398279083,9.9455699135
1520521186162025152,0.0343483327,0.0501765213,-0.0075541295,-0.0047029719,-0.2602084251,10.0194135243
1520521186167040152,0.0285655546,0.0475496108,-0.0067517650,-0.0624262221,-0.3021738443,9.9898005510
1520521186172057152,0.0220302051,0.0478449913,-0.0091723201,-0.0684390607,-0.2673983037,9.9747172941
1520521186177073152,0.0152494060,0.0516332456,-0.0102130021,-0.1129340661,-0.2733905404,9.9751562279
1520521186182088152,0.0039486624,0.0589207126,-0.0128418814,-0.1117314984,-0.2350181405,9.9507020809
1520521186187105152,-0.0035832575,0.0662118417,-0.0162893992,-0.0924904150,-0.1810583200,9.9922993621
1520521186192120152,-0.0098582050,0.0717456863,-0.0162354925,-0.1129340661,-0.2026412554,9.9901951083
1520521186197136152,-0.0166332880,0.0784419584,-0.0150895764,-0.0960981181,-0.1702657752,9.9969725290
1520521186202151152,-0.0251778403,0.0796107049,-0.0174997285,-0.0804647378,-0.1570764481,10.0119153720
1520521186207168152,-0.0307017884,0.0854471559,-0.0215031874,-0.1526188006,-0.1786553562,10.0056658597
1520521186212184152,-0.0369758459,0.0953685224,-0.0276384900,-0.1622393423,-0.1019096198,10.0428732690
1520521186217199152,-0.0369724037,0.1017964643,-0.0340826836,-0.2031266446,-0.0443476950,10.0571608401
1520521186222217152,-0.0374722610,0.1085192361,-0.0418764502,-0.1838855611,-0.0275612277,10.0290657335
1520521186227232152,-0.0372207269,0.1143725201,-0.0513015616,-0.1947086706,0.0180069514,10.0825852661
1520521186232248152,-0.0342066149,0.1214033518,-0.0647811030,-0.2307857020,0.0671745185,10.1084556418
1520521186237263152,-0.0289318721,0.1266823918,-0.0766549080,-0.1862906966,0.1007469850,10.0870712221
1520521186242279152,-0.0251698070,0.1278792725,-0.0877453983,-0.1850881289,0.1475133678,10.1079325040
1520521186247295152,-0.0191503218,0.1252861266,-0.0977868056,-0.1718598840,0.2038719375,10.1019380696
1520521186252311152,-0.0133833704,0.1206480916,-0.1059494864,-0.1911009674,0.2314536658,10.1067470315
1520521186257326152,-0.0076151880,0.1165913687,-0.1135666294,-0.2175574571,0.2938110283,10.1290244723
1520521186262342152,-0.0010933325,0.1110721912,-0.1190319207,-0.2067343477,0.3261869768,10.1195904030
1520521186267358152,0.0066741967,0.0985646478,-0.1261761751,-0.2596473271,0.3513730467,10.1561073319
1520521186272375152,0.0126898909,0.0904228126,-0.1316605407,-0.1850881289,0.3321809930,10.1402924564
1520521186277391152,0.0194558668,0.0770246964,-0.1328575878,-0.1369854203,0.3789437231,10.1304814983
1520521186282405152,0.0267310346,0.0665318812,-0.1307867867,-0.0816673055,0.3813376956,10.1671293336
1520521186287421152,0.0324953240,0.0516582377,-0.1252294348,-0.0720467638,0.3981249123,10.0066434567
1520521186292438152,0.0322210044,0.0306602425,-0.1186253829,-0.0648313576,0.3945269290,10.0054145904
1520521186297454152,0.0357376316,0.0233493273,-0.1084067501,-0.0359697325,0.3777367153,10.0016636079
1520521186302470152,0.0450358921,0.0174983277,-0.0984582824,-0.0431851387,0.3837329794,9.8843514522
1520521186307486152,0.0490479974,0.0078696450,-0.0931281939,-0.0756544670,0.3657484018,9.8777121651
1520521186312501152,0.0555880984,0.0110708787,-0.0906809617,-0.0936929827,0.3801394918,9.8325500947
1520521186317517152,0.0684209652,0.0218505716,-0.0881875973,-0.0792621701,0.3777400870,9.8823841627
1520521186322534152,0.0754645970,0.0291466827,-0.0913916392,-0.1141366338,0.3657513989,9.8443845522
1520521186327549152,0.0802490013,0.0376045321,-0.0935004046,-0.1225546078,0.3537606503,9.8874775073
1520521186332566152,0.0883108559,0.0562730463,-0.0995956179,-0.1045160921,0.3213824540,9.9233599662
1520521186337581152,0.0915946024,0.0729021835,-0.1065091628,-0.1057186598,0.3057937221,9.8943332738
1520521186342598152,0.0971355103,0.0874983426,-0.1156068369,-0.0924904150,0.2985978493,9.9941559143
1520521186347613152,0.0984085173,0.1050059447,-0.1244037999,-0.0852750087,0.3285757980,9.9824350109
1520521186352629152,0.0911348080,0.1190063007,-0.1305061125,-0.1009083890,0.3321744368,10.0127994115
1520521186357644152,0.0886274651,0.1283529308,-0.1390877752,-0.0780596024,0.3249778147,10.0149083193
1520521186362662152,0.0828479567,0.1333253278,-0.1468850791,-0.0864775764,0.3441647171,9.9731343630
1520521186367675152,0.0748078134,0.1385860379,-0.1538643217,-0.0443877064,0.3633476858,9.9506252414
1520521186372692152,0.0629937458,0.1412257242,-0.1619387548,-0.0059055396,0.3777343738,9.9211830487
1520521186377709152,0.0501726756,0.1412367284,-0.1678669616,0.0049175698,0.4005171989,9.9047854704
1520521186382724152,0.0365962544,0.1392033751,-0.1721860545,0.0421971689,0.4161031209,9.8393273508
1520521186387741152,0.0240250717,0.1368775741,-0.1759681456,0.0842870388,0.4005110173,9.8377707313
1520521186392757152,0.0122027242,0.1301783869,-0.1787027995,0.1095409608,0.4256909994,9.7968253306
1520521186397772152,0.0016360318,0.1217262857,-0.1795593043,0.1444154245,0.4436753896,9.7848469043
1520521186402788152,-0.0089320248,0.1121079181,-0.1801541555,0.1576436693,0.4664580274,9.7626151961
1520521186407804152,-0.0189947552,0.1048222804,-0.1812732473,0.1384025859,0.4640612451,9.7581562399
1520521186412820152,-0.0270489415,0.0966654621,-0.1832143798,0.1047306900,0.4964406590,9.7840195763
1520521186417834152,-0.0366051577,0.0925867080,-0.1848510429,0.1359974505,0.5084296281,9.7685956800
1520521186422852152,-0.0431420048,0.0911308676,-0.1862027530,0.1047306900,0.4880466760,9.8130813605
1520521186427868152,-0.0504323092,0.0896732751,-0.1870119711,0.0878947420,0.4940436894,9.6865656936
1520521186432883152,-0.0614976867,0.0829641852,-0.1859603827,0.0999204191,0.4580685401,9.7155373221
1520521186437899152,-0.0660179841,0.0858791720,-0.1870119344,0.0878947420,0.4736583022,9.7400441942
1520521186442915152,-0.0697846439,0.0905515025,-0.1912980985,0.0939075805,0.4844500977,9.6632736439
1520521186447931152,-0.0790826064,0.0928891339,-0.1950506876,0.0446023043,0.4856530782,9.6346987831
1520521186452947152,-0.0825973518,0.0978522189,-0.1990645495,0.0506151429,0.4724620652,9.6334909765
1520521186457962152,-0.0866164081,0.1025280931,-0.2047029763,0.0710587940,0.4556725071,9.6054169064
1520521186462978152,-0.0901322512,0.1074948203,-0.2100695677,0.1071358254,0.4484748547,9.6015863389
1520521186467993152,-0.0908802043,0.1133287714,-0.2124586189,0.1540359662,0.4640600275,9.6255196633
1520521186473010152,-0.0906271373,0.1177134779,-0.2175661113,0.1768847527,0.4688548096,9.6252925899
1520521186478026152,-0.0893721290,0.1203531849,-0.2237709928,0.2117592164,0.4988306041,9.6388696372
1520521186483040152,-0.0853503754,0.1226931207,-0.2264661346,0.2442285447,0.5419971305,9.6338629287
1520521186488057152,-0.0768083205,0.1235815482,-0.2305335224,0.2779004406,0.5252065421,9.7090909149
1520521186493074152,-0.0690246901,0.1224358162,-0.2367794388,0.2887235500,0.5551842097,9.7159291996
1520521186498089152,-0.0592333506,0.1201289758,-0.2443907108,0.3055594980,0.6031485154,9.8179872232
1520521186503105152,-0.0426509132,0.1230733573,-0.2533272982,0.2730901698,0.6487183804,9.8403395600
1520521186508122152,-0.0235598861,0.1231063351,-0.2628318755,0.2718876021,0.7014806526,9.8821369965
1520521186513137152,-0.0024581627,0.1225536892,-0.2709919033,0.2490388155,0.7410540662,9.9276444186
1520521186518152152,0.0196471331,0.1225922190,-0.2821253567,0.2189746227,0.7782297608,9.9488193866
1520521186523169152,0.0427535782,0.1203029800,-0.2943606453,0.2358105707,0.8297914877,9.9602266738
1520521186528186152,0.0668674142,0.1180068507,-0.3038923417,0.2322028675,0.8285926283,9.9846679814
1520521186533200152,0.0954989954,0.1107553143,-0.3121175022,0.2430259770,0.8393840492,10.0066328469
1520521186538218152,0.1203584087,0.1008769267,-0.3192734860,0.2069489456,0.8621705270,10.0232317965
1520521186543233152,0.1399394920,0.0907072723,-0.3272335294,0.1865052944,0.8621721192,9.9932150397
1520521186548248152,0.1607708202,0.0752902749,-0.3341537383,0.2225823258,0.8333899393,9.9766219368
1520521186553265152,0.1778303256,0.0549036952,-0.3356938210,0.2334054352,0.8249951134,9.9637411931
1520521186558281152,0.1913620148,0.0284010325,-0.3388973296,0.2382157061,0.7710334197,9.9172612350
1520521186563296152,0.2013770965,0.0001355726,-0.3372378166,0.2322028675,0.7254665519,9.8592569975
1520521186568311152,0.2061143735,-0.0290082938,-0.3347635339,0.2430259770,0.6571147048,9.8429482889
1520521186573328152,0.2075870552,-0.0558194502,-0.3333475827,0.2081515133,0.6643122635,9.7572820669
1520521186578343152,0.2040362616,-0.0832262712,-0.3278685548,0.1684667787,0.6691119160,9.6774757236
1520521186583358152,0.2012402073,-0.1074159121,-0.3266952074,0.1480231276,0.5995633636,9.5952303105
1520521186588376152,0.1944381557,-0.1202409465,-0.3262393299,0.1432128568,0.5839749128,9.5441579981
1520521186593390152,0.1858801799,-0.1307355938,-0.3257624005,0.0818819034,0.5563994597,9.5087553882
1520521186598408152,0.1748184132,-0.1336515858,-0.3265757333,0.0013098666,0.5120375392,9.4398542553
1520521186603424152,0.1630092618,-0.1316136078,-0.3276204192,-0.0022978365,0.4580765012,9.3992669523
1520521186608439152,0.1504460414,-0.1284045596,-0.3308191799,-0.0552108159,0.4185089882,9.3370647895
1520521186613455152,0.1368798682,-0.1240325524,-0.3331955436,-0.1249597432,0.4041247354,9.2831369490
1520521186618470152,0.1230701429,-0.1126615876,-0.3376824537,-0.1658470455,0.3645562859,9.2556820542
1520521186623486152,0.1092673175,-0.0989719299,-0.3375522990,-0.1754675872,0.3225871204,9.1500615217
1520521186628503152,0.0979724702,-0.0870208536,-0.3406867007,-0.1995189414,0.3081993085,9.1352017835
1520521186633518152,0.0871811849,-0.0756581769,-0.3416621148,-0.1814804257,0.3046004823,9.0966789652
1520521186638534152,0.0746308940,-0.0648818721,-0.3415565245,-0.1718598840,0.3369765245,9.1755795415
1520521186643550152,0.0628251259,-0.0619770249,-0.3398890823,-0.1225546078,0.3489640886,9.2018172517
1520521186648566152,0.0500113398,-0.0637463788,-0.3339266082,-0.0600210867,0.3789377289,9.1860714839
1520521186653583152,0.0364410187,-0.0669707653,-0.3287854871,-0.0504005450,0.4101146306,9.2022174560
1520521186658598152,0.0258799482,-0.0748561229,-0.3236855360,-0.0022978365,0.4376911140,9.2435595413
1520521186663614152,0.0153216416,-0.0836287458,-0.3137224280,0.0361843303,0.4664674870,9.2687240823
1520521186668629152,0.0050111133,-0.0953165724,-0.3032409258,0.0277663563,0.4940483724,9.2734276987
1520521186673646152,-0.0027831297,-0.1055508624,-0.2911297001,0.0458048720,0.4844538441,9.2581536062
1520521186678662152,-0.0068027467,-0.1134591552,-0.2765727774,0.0902998774,0.4952426425,9.1600899029
1520521186683677152,-0.0108209131,-0.1207868642,-0.2611997709,0.0506151429,0.5012414354,9.1534974593
1520521186688694152,-0.0085555895,-0.1246031142,-0.2504110357,0.0025124344,0.4748640925,9.1667749705
1520521186693709152,-0.0065384872,-0.1269661822,-0.2382579888,0.0409946012,0.4664671124,9.1640843062
1520521186698724152,-0.0012479451,-0.1246665462,-0.2258048941,-0.0239440553,0.4772644338,9.1530844156
1520521186703741152,0.0057950554,-0.1235150053,-0.2195865144,-0.0540082481,0.4820633370,9.2451817371
1520521186708756152,0.0153518753,-0.1235360306,-0.2104056895,-0.0744518993,0.4976537547,9.1977176195
1520521186713773152,0.0218851117,-0.1258732882,-0.2071890582,-0.0660339253,0.4964539587,9.2441226116
1520521186718788152,0.0301862765,-0.1241413996,-0.1998863824,-0.0780596024,0.4796669294,9.2593639043
1520521186723805152,0.0422562180,-0.1235764860,-0.1915174161,-0.0852750087,0.4844640530,9.3198609429
1520521186728821152,0.0530738916,-0.1189283108,-0.1847382685,-0.0624262221,0.4664751671,9.3580068374
1520521186733836152,0.0633898025,-0.1139904048,-0.1774148725,-0.0684390607,0.4592807929,9.3743423941
1520521186738852152,0.0742101185,-0.1064240137,-0.1722367694,-0.1057186598,0.4760716623,9.3793374559
1520521186743868152,0.0835264717,-0.0950658439,-0.1686502411,-0.1273648786,0.4988570162,9.4074173844
1520521186748884152,0.0908326108,-0.0834163487,-0.1653283020,-0.1634419100,0.5228426345,9.4635280591
1520521186753900152,0.0991441607,-0.0732306667,-0.1593138861,-0.1478085298,0.4676809574,9.4448353797
1520521186758916152,0.1079587592,-0.0586558091,-0.1600307049,-0.1345802849,0.4724764888,9.4481883786
1520521186763932152,0.1120021456,-0.0452651142,-0.1545249926,-0.1850881289,0.4389044907,9.4138484139
1520521186768946152,0.1152926900,-0.0315855154,-0.1482040194,-0.2223677280,0.4293142708,9.4479228000
1520521186773964152,0.1168228254,-0.0179022352,-0.1435030545,-0.1959112383,0.4245156486,9.4616156936
1520521186778979152,0.1148341617,-0.0045109895,-0.1390683244,-0.2524319208,0.3741561528,9.4947549742
1520521186783994152,0.1118389815,0.0074207544,-0.1338312052,-0.2849012490,0.3633664178,9.5171622699
1520521186789011152,0.1023069542,0.0178966581,-0.1299457961,-0.2620524625,0.3489749532,9.4995217466
1520521186794027152,0.0955361326,0.0254568857,-0.1250055683,-0.3089526033,0.3345889208,9.5360187384
1520521186799043152,0.0847453216,0.0335983071,-0.1200534266,-0.2945217907,0.3405834990,9.5533045904
1520521186804058152,0.0739543342,0.0414476156,-0.1148329622,-0.3053449002,0.3429826228,9.5510833093
1520521186809075152,0.0629110366,0.0487147850,-0.1098870231,-0.3125603064,0.3261952189,9.5569806301
1520521186814090152,0.0488471779,0.0510214085,-0.1028089087,-0.3137628741,0.3357884359,9.5976580189
1520521186819105152,0.0350326422,0.0533346863,-0.0981661740,-0.3257885513,0.3178022662,9.6070897612
1520521186824122152,0.0207182336,0.0565168218,-0.0916220153,-0.3065474679,0.3285930314,9.5569197662
1520521186829139152,0.0076539444,0.0567936170,-0.0880784260,-0.3318013898,0.3142053132,9.5804224835
1520521186834153152,-0.0049094602,0.0567835952,-0.0861612685,-0.3462322024,0.3082107350,9.6026495260
1520521186839170152,-0.0177180988,0.0588022402,-0.0801698943,-0.3342065253,0.3237986239,9.6001929861
1520521186844186152,-0.0257563722,0.0573246847,-0.0736729731,-0.3438270670,0.3106088285,9.6095966410
1520521186849201152,-0.0302788337,0.0555636788,-0.0696197222,-0.3582578795,0.3142073737,9.6492464881
1520521186854217152,-0.0317819693,0.0567184282,-0.0658203869,-0.3702835567,0.3417885400,9.7248760008
1520521186859234152,-0.0315256131,0.0596287297,-0.0644458933,-0.3558527441,0.3897530331,9.8048766994
1520521186864248152,-0.0287606634,0.0610911060,-0.0660631872,-0.3305988221,0.4293227002,9.8824559500
1520521186869264152,-0.0247351777,0.0634186585,-0.0641590489,-0.2969269262,0.4724891329,9.9413554539
1520521186874280152,-0.0184464617,0.0672054766,-0.0627890873,-0.3029397647,0.5180569373,10.0238817650
1520521186879297152,-0.0066329077,0.0695433655,-0.0636048763,-0.2716730042,0.5588252766,10.1048877528
1520521186884312152,-0.0048851224,0.0613860163,-0.0639409357,-0.2019240768,0.5636164060,10.1565006601
1520521186889329152,0.0011383028,0.0543893232,-0.0618411239,-0.0780596024,0.6403517461,10.2609753014
1520521186894345152,0.0137019152,0.0500081810,-0.0562163426,-0.0407800033,0.6895136000,10.3860760488
1520521186899361152,0.0204770296,0.0386286319,-0.0495519970,0.0301714918,0.7434693931,10.4213592928
1520521186904377152,0.0280095100,0.0275305648,-0.0390991860,0.1359974505,0.7806345042,10.4946702114
1520521186909392152,0.0383079085,0.0187697558,-0.0305275456,0.1708719142,0.8393896688,10.4780034518
1520521186914408152,0.0423235187,0.0062024612,-0.0160211274,0.2634696281,0.8741575292,10.5247161537
1520521186919424152,0.0458397459,-0.0028633171,-0.0033809201,0.2598619249,0.8621664060,10.5108172348
1520521186924439152,0.0491131189,-0.0066886428,0.0109230449,0.3584724774,0.8561630237,10.4447832055
1520521186929456152,0.0511341299,-0.0087719812,0.0274070491,0.3668904514,0.8561623681,10.4168098152
1520521186934471152,0.0536682531,-0.0032798533,0.0442184661,0.2971415240,0.8681592046,10.3907477041
1520521186939488152,0.0524367672,0.0057103257,0.0599813773,0.2839132792,0.8657619541,10.3443930402
1520521186944504152,0.0451776339,0.0190769225,0.0728128313,0.2983440917,0.8153969323,10.3001402215
1520521186949519152,0.0386780307,0.0374009938,0.0843279481,0.3127749043,0.7890147191,10.2477290084
1520521186954535152,0.0271561478,0.0589305110,0.0950652156,0.2742927375,0.7314589759,10.2330518271
1520521186959552152,0.0151288094,0.0790058225,0.1047101176,0.2478362478,0.6942876833,10.1752383901
1520521186964567152,0.0018523276,0.1057883132,0.1122441170,0.1865052944,0.6451277026,10.1665861393
1520521186969583152,-0.0139369622,0.1343254108,0.1170906631,0.2021386747,0.6631135914,10.1152820995
1520521186974599152,-0.0332536171,0.1611354043,0.1135434821,0.2057463779,0.6295373785,10.0931989907
1520521186979615152,-0.0500525361,0.1899795181,0.1124421086,0.1756821850,0.5911672265,10.0447189898
1520521186984630152,-0.0683631999,0.2188361530,0.1064737092,0.1985309716,0.5036281960,9.9887990457
1520521186989647152,-0.0884399926,0.2433249729,0.0991225011,0.2057463779,0.4184886640,9.9562718078
1520521186994662152,-0.1090219351,0.2657731758,0.0920272108,0.2418234092,0.3561305522,9.8699828091
1520521186999678152,-0.1303599383,0.2835450907,0.0900381233,0.2947363886,0.2985676908,9.8230381567
1520521187004694152,-0.1499368306,0.3010182975,0.0910195506,0.2971415240,0.1906448654,9.7905799564
1520521187009710152,-0.1687702469,0.3132578047,0.0879013736,0.2706850343,0.1570709941,9.7618166103
1520521187014726152,-0.1873510471,0.3254930397,0.0864060054,0.2502413832,0.1294923566,9.7550696274
1520521187019741152,-0.2071951159,0.3330670869,0.0843363096,0.2009361070,0.1079116690,9.7892727574
1520521187024758152,-0.2260383450,0.3374362981,0.0822402929,0.1816950236,0.1570779249,9.8056821108
1520521187029774152,-0.2426252948,0.3383119663,0.0793017611,0.1155537994,0.1942564293,9.8690454129
1520521187034788152,-0.2587162411,0.3362827274,0.0730935141,0.1275794765,0.2781953224,9.9548451612
1520521187039804152,-0.2720427708,0.3333760473,0.0684967394,0.1816950236,0.3093687587,9.9868280616
1520521187044822152,-0.2788346568,0.3290055348,0.0673938111,0.1949232684,0.3885109964,9.9750006900
1520521187049837152,-0.2924241055,0.3156001721,0.0659640227,0.2273925967,0.4016990122,10.0560218676
1520521187054853152,-0.2946959606,0.3071447641,0.0675270291,0.3007492272,0.3621216650,10.0344278561
1520521187059869152,-0.2947017315,0.3001391521,0.0720729553,0.3356236908,0.3741103531,10.0596438831
1520521187064884152,-0.2952162159,0.2884704624,0.0768547915,0.3368262586,0.3309412042,9.9957563568
1520521187069900152,-0.2884389021,0.2785471075,0.0838007983,0.3644853160,0.2769777309,9.9967019047
1520521187074916152,-0.2768848406,0.2709603417,0.0894029926,0.3668904514,0.2493973139,9.9560303510
1520521187079933152,-0.2665919386,0.2592907866,0.0960585810,0.3211928783,0.1966386943,9.8647172217
1520521187084947152,-0.2537885965,0.2470452743,0.1005406887,0.3223954460,0.1654609497,9.8391687524
1520521187089964152,-0.2339525331,0.2342292194,0.1014881854,0.2779004406,0.1103039556,9.7989805907
1520521187094979152,-0.2143704502,0.2202511700,0.1010745270,0.2875209823,0.1127014872,9.7675067249
1520521187099996152,-0.1927747658,0.2083121432,0.1012137882,0.2791030083,0.0971133173,9.7629552858
1520521187105012152,-0.1684098232,0.1998700852,0.1016451384,0.2562542218,0.0803271309,9.7248433022
1520521187110028152,-0.1442980259,0.1905559605,0.1012586483,0.2682798989,0.1366857942,9.7025905575
1520521187115041152,-0.1159219345,0.1760007733,0.1000125707,0.2153669196,0.1582744429,9.7007602440
1520521187120058152,-0.0862798458,0.1684393071,0.0988175136,0.1828975913,0.1342941632,9.6987753794
1520521187125075152,-0.0591502554,0.1635095151,0.0938594889,0.1263769088,0.1546839524,9.7097649339
1520521187130091152,-0.0320201827,0.1582854248,0.0899814247,0.1444154245,0.1259031774,9.7072931343
1520521187135106152,-0.0071550535,0.1513150550,0.0850120389,0.1372000182,0.0995226500,9.6864704989
1520521187140122152,0.0194669211,0.1417185431,0.0816426537,0.1949232684,0.0275697289,9.6673845133
1520521187145139152,0.0428252218,0.1341589860,0.0788359893,0.1792898882,-0.0383817768,9.6710874245
1520521187150155152,0.0629110942,0.1225187657,0.0760042690,0.2310002998,-0.1235247742,9.6230192281
1520521187155171152,0.0819887762,0.1073757098,0.0753121058,0.2346080030,-0.2038674636,9.6300353223
1520521187160187152,0.0998054358,0.0901982973,0.0724423475,0.2418234092,-0.3177863658,9.6649404979
1520521187165201152,0.1148629951,0.0750514808,0.0725692896,0.2634696281,-0.3729485111,9.6264328460
1520521187170218152,0.1286599713,0.0578688509,0.0710597283,0.2478362478,-0.4472939998,9.6417653821
1520521187175233152,0.1414556215,0.0427218767,0.0709203249,0.2562542218,-0.4760740256,9.6579815262
1520521187180250152,0.1539980872,0.0284591557,0.0670004151,0.2478362478,-0.4341034551,9.6684818303
1520521187185265152,0.1645289313,0.0136143348,0.0625387010,0.2574567895,-0.4245110810,9.7218374571
1520521187190282152,0.1712886229,-0.0018118182,0.0569973580,0.2670773312,-0.3957324601,9.7693636546
1520521187195297152,0.1770452283,-0.0166599666,0.0530856035,0.2598619249,-0.3429697195,9.8147060482
1520521187200313152,0.1830570060,-0.0280084885,0.0481178757,0.2490388155,-0.2806135746,9.8565877705
1520521187205329152,0.1855463385,-0.0402223443,0.0393623702,0.2851158469,-0.1990748356,9.8596435356
1520521187210344152,0.1875353551,-0.0530293640,0.0343909945,0.3308134200,-0.1702990245,9.8766028386
1520521187215360152,0.1877670440,-0.0629159435,0.0267396578,0.3873341025,-0.1103464054,9.8446163472
1520521187220377152,0.1847276729,-0.0742534411,0.0163778141,0.4173982953,-0.0695779725,9.8652025544
1520521187225392152,0.1829490144,-0.0844336495,0.0092690799,0.4450573527,-0.0455973182,9.8625856634
1520521187230408152,0.1821770056,-0.0925694019,0.0005507650,0.4510701913,-0.0288098205,9.8985372300
1520521187235423152,0.1776340208,-0.1009943734,-0.0095155016,0.4426522173,0.0095633286,9.8881224509
1520521187240441152,0.1751093889,-0.1038837082,-0.0190021716,0.3993597796,0.0167615429,9.8501860664
1520521187245457152,0.1725834397,-0.1067686723,-0.0301121169,0.4065751859,-0.0132175296,9.8164428949
1520521187250472152,0.1703093187,-0.1087771991,-0.0420274974,0.4161957276,-0.0120191385,9.7291872886
1520521187255488152,0.1662755335,-0.1113699126,-0.0536735111,0.3524596388,-0.0216072979,9.7100605640
1520521187260504152,0.1630020664,-0.1098858611,-0.0642076182,0.3512570711,-0.0791659446,9.6276161766
1520521187265519152,0.1622441789,-0.1081167248,-0.0720387105,0.3380288263,-0.1043468632,9.5998780335
1520521187270536152,0.1589687360,-0.1066261174,-0.0850077307,0.3031543626,-0.1822882746,9.5235919862
1520521187275551152,0.1531835508,-0.1063180581,-0.0920289663,0.2754953052,-0.2530354054,9.4844172991
1520521187280567152,0.1476509816,-0.1060142710,-0.0974273932,0.3055594980,-0.2998042234,9.4725488373
1520521187285582152,0.1423689234,-0.1048296760,-0.1052545307,0.2466336801,-0.3321764255,9.3801824409
1520521187290600152,0.1318149567,-0.0998598781,-0.1127724209,0.1612513725,-0.3897285159,9.2950709756
1520521187295615152,0.1240200434,-0.0980913132,-0.1214020827,0.1311871796,-0.4292978084,9.2303221288
1520521187300631152,0.1157292599,-0.0928328869,-0.1275692209,0.1708719142,-0.4580802694,9.1416409855
1520521187305646152,0.1064344690,-0.0867007007,-0.1337278229,0.0710587940,-0.5120338146,9.0892065036
1520521187310663152,0.0986481767,-0.0793994720,-0.1409625165,0.0253612209,-0.4856491662,9.0559233956
1520521187315678152,0.0865932817,-0.0688917736,-0.1492470055,0.0025124344,-0.5144267569,9.0213095372
1520521187320694152,0.0770540997,-0.0575140360,-0.1556356712,-0.0239440553,-0.5036324325,8.9715843343
1520521187325710152,0.0685180431,-0.0484706229,-0.1606912590,-0.0516031127,-0.5000328571,8.9811471943
1520521187330727152,0.0592295444,-0.0373834429,-0.1673531604,-0.1093263629,-0.4724481317,8.9921414377
1520521187335741152,0.0534582689,-0.0242428096,-0.1786053146,-0.0828698733,-0.4017009072,9.0197063904
1520521187340758152,0.0484383337,-0.0146057795,-0.1871800869,-0.1141366338,-0.3849105061,9.0722908290
1520521187345773152,0.0414089292,-0.0052652922,-0.1941300733,-0.1081237952,-0.3669238681,9.0780254834
1520521187350789152,0.0401611619,0.0069985892,-0.2037740223,-0.0828698733,-0.3453413073,9.0917043566
1520521187355806152,0.0369049760,0.0177916486,-0.2085555269,-0.0143235136,-0.3285586800,9.1026422372
1520521187360822152,0.0354059883,0.0265427917,-0.2122736765,-0.0239440553,-0.3177656669,9.1399139601
1520521187365842152,0.0331522259,0.0352965531,-0.2170726096,-0.0059055396,-0.3081739484,9.1827283559
1520521187370854152,0.0308964837,0.0425933920,-0.2218826581,0.0193483823,-0.2769982643,9.2440457764
1520521187375868152,0.0319081948,0.0490115297,-0.2245410760,-0.0095132428,-0.3105719483,9.2931694854
1520521187380884152,0.0314081493,0.0510517529,-0.2247951269,-0.0419825710,-0.2805909089,9.2655648335
1520521187385900152,0.0309041051,0.0519344508,-0.2280340749,-0.0864775764,-0.2614011967,9.2915463782
1520521187390917152,0.0316557159,0.0510642347,-0.2293948738,-0.1129340661,-0.2829836638,9.2883385056
1520521187395933152,0.0321559378,0.0493161245,-0.2294091458,-0.1165417692,-0.3225550168,9.3093308002
1520521187400948152,0.0323980864,0.0429072202,-0.2299996122,-0.1165417692,-0.3549318082,9.3511995547
1520521187405964152,0.0316287043,0.0318357696,-0.2306237811,-0.1093263629,-0.3753177574,9.4022835371
1520521187410980152,0.0331158171,0.0158065692,-0.2293961216,-0.1502136652,-0.3765137134,9.4038448223
1520521187415995152,0.0381267824,0.0015161279,-0.2241034693,-0.1478085298,-0.3693190581,9.4073008280
1520521187421013152,0.0376062723,-0.0139376470,-0.2204327169,-0.1538213683,-0.4004962408,9.4085519001
1520521187426027152,0.0401010424,-0.0288038292,-0.2181158484,-0.1826829934,-0.4064896951,9.4297572593
1520521187431044152,0.0446024160,-0.0477544346,-0.2136694697,-0.2091394831,-0.3669160006,9.4206790307
1520521187436059152,0.0503646394,-0.0634993180,-0.2092009707,-0.2115446185,-0.3597209708,9.4323168643
1520521187441075152,0.0563808901,-0.0769115698,-0.2052562456,-0.2163548894,-0.3717120004,9.4474832494
1520521187446091152,0.0634071309,-0.0871196548,-0.2007478416,-0.2416088114,-0.3681126122,9.4372662519
1520521187451107152,0.0696825527,-0.0958747547,-0.1948741925,-0.2367985405,-0.3249439316,9.4952845332
1520521187456123152,0.0762140288,-0.0996696633,-0.1913981308,-0.2223677280,-0.3021613875,9.5590397726
1520521187461139152,0.0842555403,-0.1023006284,-0.1871043394,-0.1862906966,-0.2805796697,9.5633161486
1520521187466154152,0.0945607643,-0.1037666261,-0.1822647643,-0.1694547486,-0.2530007512,9.5991518456
1520521187471169152,0.1058799809,-0.0994074532,-0.1763004109,-0.1405931235,-0.1822537140,9.6092612288
1520521187476187152,0.1071415716,-0.0982530777,-0.1719651178,-0.1381879881,-0.1366865653,9.7312184990
1520521187481203152,0.1182134961,-0.0898095208,-0.1678629957,-0.1802778580,-0.0887176702,9.7025278035
1520521187486217152,0.1272814555,-0.0758268034,-0.1650676307,-0.1538213683,-0.0143730245,9.7870343019
1520521187491235152,0.1333310612,-0.0624214807,-0.1647060243,-0.1898983997,0.0455868065,9.8675149195
1520521187496249152,0.1398815043,-0.0504736121,-0.1640859208,-0.1947086706,0.0755656917,9.9686390303
1520521187501266152,0.1429194405,-0.0338627841,-0.1642353515,-0.1971138060,0.1271289172,10.0441515158
1520521187506282152,0.1409210150,-0.0257077187,-0.1630871877,-0.1442008266,0.1487093238,10.1052090748
1520521187511298152,0.1338977537,-0.0178511060,-0.1600380913,-0.1538213683,0.1499092135,10.0948422503
1520521187516312152,0.1230976671,-0.0137766846,-0.1597163531,-0.1213520401,0.2074654250,10.1467665634
1520521187521330152,0.1107917202,-0.0094165685,-0.1574957702,-0.1490110975,0.1786882090,10.1703067230
1520521187526345152,0.0906935690,-0.0082727470,-0.1523091680,-0.1574290715,0.1822862859,10.2029251811
1520521187531361152,0.0693372967,-0.0080021145,-0.1476679932,-0.1862906966,0.1774919721,10.2485343940
1520521187536376152,0.0477288906,-0.0080215082,-0.1435696666,-0.1586316392,0.1726932562,10.2401348474
1520521187541394152,0.0218481377,-0.0092124842,-0.1378490226,-0.1874932643,0.1451152743,10.2683341184
1520521187546409152,-0.0030297525,-0.0124442150,-0.1316047153,-0.1814804257,0.1690976145,10.2426850394
1520521187551425152,-0.0279075486,-0.0133346716,-0.1291302659,-0.1706573163,0.1607027886,10.2425878792
1520521187556441152,-0.0525276242,-0.0101485601,-0.1255429765,-0.1718598840,0.1451140567,10.2670198087
1520521187561456152,-0.0766509514,-0.0104552238,-0.1233360269,-0.1586316392,0.1475113073,10.2703751463
1520521187566471152,-0.1015266814,-0.0104744405,-0.1197727247,-0.1526188006,0.1547056815,10.2796067566
1520521187571489152,-0.1216202105,-0.0049554805,-0.1161760516,-0.1261623109,0.1343182338,10.2898284197
1520521187576505152,-0.1379471973,0.0011601087,-0.1171812133,-0.1141366338,0.1583001057,10.2734179670
1520521187581520152,-0.1502478634,0.0098931780,-0.1157389219,-0.0792621701,0.1774836363,10.3218698570
1520521187586535152,-0.1618024541,0.0166036050,-0.1205361478,-0.1021109567,0.1810828371,10.3499802000
1520521187591552152,-0.1685761690,0.0259296221,-0.1220756829,-0.0588185190,0.1858760271,10.3693105878
1520521187596569152,-0.1700789438,0.0305955544,-0.1236605885,-0.1069212275,0.2014685990,10.3534935733
1520521187601583152,-0.1713301964,0.0367243352,-0.1273992127,-0.1129340661,0.1978716460,10.3663391901
1520521187606600152,-0.1680637428,0.0396540291,-0.1327939671,-0.1309725818,0.1894790679,10.3444422162
1520521187611615152,-0.1590130175,0.0454983758,-0.1376361336,-0.1454033943,0.2230561237,10.3271177761
1520521187616630152,-0.1449397028,0.0490143438,-0.1427759651,-0.2175574571,0.2890144666,10.3509986449
1520521187621648152,-0.1296125716,0.0528323867,-0.1517035497,-0.2584447593,0.3585677956,10.3524909391
1520521187626663152,-0.1107665472,0.0592837383,-0.1641347573,-0.2367985405,0.3837480586,10.3290128129
1520521187631679152,-0.0931874844,0.0593299654,-0.1787769063,-0.2115446185,0.4449022533,10.3391666660
1520521187636694152,-0.0728402180,0.0625839623,-0.1939408271,-0.1718598840,0.5120510263,10.3573092194
1520521187641711152,-0.0484672895,0.0684576246,-0.2074689323,-0.1886958320,0.5492256906,10.3853282955
1520521187646726152,-0.0190708424,0.0746341101,-0.2245212456,-0.1995189414,0.6151792569,10.3470185769
1520521187651743152,0.0055446307,0.0743902526,-0.2386375942,-0.1538213683,0.6679378764,10.3976566678
1520521187656758152,0.0367043017,0.0823099070,-0.2535154688,-0.1862906966,0.7027154775,10.4235059605
1520521187661774152,0.0721265536,0.0847014851,-0.2708784294,-0.1658470455,0.7506795022,10.4197737691
1520521187666789152,0.1052889234,0.0897204652,-0.2903815490,-0.1959112383,0.7758637926,10.4595547338
1520521187671805152,0.1382025465,0.0967797670,-0.3101391861,-0.2668627333,0.7866615824,10.5404227409
1520521187676822152,0.1741316654,0.1029624545,-0.3285563636,-0.3125603064,0.8682066902,10.5721659048
1520521187681837152,0.2080475788,0.1073975041,-0.3475242377,-0.3173705773,0.9761297030,10.6209175306
1520521187686852152,0.2414603222,0.1112488593,-0.3662250786,-0.3835118015,1.0205030500,10.6610309375
1520521187691869152,0.2726147163,0.1162590391,-0.3827484595,-0.3738912598,1.0828576027,10.7201458331
1520521187696885152,0.2994913104,0.1168960487,-0.3990267065,-0.3955374786,1.1344223268,10.8016563193
1520521187701900152,0.3203427936,0.1180959822,-0.4087962044,-0.3859169369,1.1991751604,10.8689038839
1520521187706917152,0.3351671428,0.1186947581,-0.4126069375,-0.3799040984,1.2591317132,10.8432197247
1520521187711933152,0.3477296301,0.1204640135,-0.4185689448,-0.4075631558,1.3023029227,10.8097446701
1520521187716947152,0.3535018074,0.1161013376,-0.4207773929,-0.3738912598,1.3586599001,10.7977405300
1520521187721965152,0.3542543788,0.1131790465,-0.4175544732,-0.3522450410,1.3790436014,10.7638077856
1520521187726981152,0.3504864763,0.1128796292,-0.4151147823,-0.3642707181,1.3814428188,10.7185988832
1520521187731996152,0.3384250538,0.1125791483,-0.4134713273,-0.3486373378,1.3886364438,10.6289546170
1520521187737011152,0.3231041365,0.1172287390,-0.4109723748,-0.2933192230,1.4054201014,10.5086989864
1520521187742027152,0.3072764815,0.1172086961,-0.4058025992,-0.2355959728,1.3466577249,10.3687371668
1520521187747044152,0.2836580807,0.1174798994,-0.4016983157,-0.2404062437,1.2974933422,10.2944547168
1520521187752059152,0.2560229444,0.1200776898,-0.3964865963,-0.2307857020,1.2159510442,10.1898476356
1520521187757076152,0.2238639902,0.1226751649,-0.3918075678,-0.1898983997,1.1571899790,10.1592912185
1520521187762091152,0.1909532957,0.1270213803,-0.3873843464,-0.2043292123,1.0852426775,10.1118539374
1520521187767106152,0.1510072454,0.1319468795,-0.3826730647,-0.2175574571,1.0264858270,9.9853662996
1520521187772123152,0.1103113916,0.1403708829,-0.3787453435,-0.2091394831,0.9245582354,9.9516815834
1520521187777140152,0.0671005305,0.1490932991,-0.3777867369,-0.2548370562,0.8610073520,9.9115133121
1520521187782155152,0.0266512318,0.1569477437,-0.3787337547,-0.2981294939,0.8442227579,9.8550060111
1520521187787170152,-0.0165618679,0.1659702856,-0.3810194757,-0.3354090930,0.8526196443,9.9599536384
1520521187792188152,-0.0575210601,0.1712144559,-0.3865848481,-0.2921166553,0.8070489364,9.9560902594
1520521187797203152,-0.0979788856,0.1758775109,-0.3926966919,-0.2740781396,0.7986535486,9.9582471568
1520521187802219152,-0.1371770141,0.1796523360,-0.3934066207,-0.2404062437,0.8238328750,9.9846241701
1520521187807234152,-0.1723596852,0.1793486245,-0.3938845943,-0.2019240768,0.8166350353,9.9586894573
1520521187812251152,-0.2060345673,0.1775820253,-0.3919415706,-0.1165417692,0.8741871258,9.9403701107
1520521187817266152,-0.2369452563,0.1734752349,-0.3862338230,-0.0516031127,0.8909700341,9.9618024020
1520521187822282152,-0.2633482325,0.1565434699,-0.3784679250,0.0963127160,0.9149413224,10.0207707789
1520521187827297152,-0.2889986372,0.1366894139,-0.3674791073,0.1949232684,1.0264537016,10.1161601640
1520521187832314152,-0.3108811552,0.1112808611,-0.3492347899,0.3235980137,1.0480282076,10.1520752813
1520521187837329152,-0.3284997750,0.0803398613,-0.3318522831,0.4655010038,1.0791948068,10.2122573114
1520521187842346152,-0.3430988139,0.0490940898,-0.3090666821,0.5520858792,1.1847124205,10.1927173423
1520521187847361152,-0.3511637775,0.0172644670,-0.2849449326,0.5941757491,1.2350730402,10.1353134993
1520521187852378152,-0.3574720682,-0.0160199324,-0.2613786575,0.6170245357,1.3178119499,10.1071189639
1520521187857393152,-0.3597502549,-0.0440651194,-0.2350743753,0.6422784577,1.3657755999,10.0975292325
1520521187862409152,-0.3562506346,-0.0729792817,-0.2098696807,0.5893654783,1.3837668273,9.9736773118
1520521187867424152,-0.3509818901,-0.0940231874,-0.1854198675,0.6098091294,1.4209385882,9.8688491204
1520521187872442152,-0.3389152653,-0.1022282184,-0.1665663039,0.4907549258,1.4161512989,9.8642018786
1520521187877457152,-0.3208216831,-0.1101242050,-0.1534031824,0.3584724774,1.4425426908,9.7271685788
1520521187882472152,-0.3075050171,-0.1177219365,-0.1434755208,0.3308134200,1.3801895430,9.7309850326
1520521187887488152,-0.2871384741,-0.1142392002,-0.1353702715,0.2442285447,1.2914598951,9.6656721224
1520521187892504152,-0.2602312499,-0.1040447757,-0.1299314849,0.1792898882,1.2446984763,9.5954590185
1520521187897521152,-0.2353368744,-0.0935502846,-0.1280038382,0.1167563671,1.1487721127,9.5578104780
1520521187902536152,-0.2064176247,-0.0795554186,-0.1268686197,0.0313740595,1.0984148648,9.5226641867
1520521187907552152,-0.1777470746,-0.0623495938,-0.1278728477,0.0157406792,1.0528487463,9.4740507413
1520521187912568152,-0.1495865513,-0.0483389978,-0.1326882387,0.0085252729,1.0144768147,9.4102404730
1520521187917583152,-0.1219309113,-0.0351991100,-0.1388620951,0.0397920335,0.9641104817,9.3542023440
1520521187922600152,-0.0947756343,-0.0238230234,-0.1393668926,0.0975152837,0.9161403691,9.2525807508
1520521187927617152,-0.0718913397,-0.0124522527,-0.1385110264,0.1155537994,0.8429913984,9.2234229058
1520521187932633152,-0.0517707246,-0.0037188659,-0.1325296620,0.1287820442,0.7722410832,9.1571209358
1520521187937648152,-0.0336667454,0.0012293766,-0.1279261934,0.1552385339,0.7698407418,9.0790021183
1520521187942663152,-0.0208428603,0.0029652226,-0.1214435563,0.1684667787,0.7242723754,9.0428913350
1520521187947679152,-0.0153111302,0.0009080293,-0.1141646466,0.1540359662,0.6655156186,9.0035761988
1520521187952695152,-0.0100304793,-0.0011499909,-0.1066147243,0.1672642110,0.5683842141,8.9280028027
1520521187957712152,-0.0075108225,-0.0032200206,-0.0950014796,0.1913155653,0.5240141452,8.8964340803
1520521187962726152,-0.0110300764,-0.0093645122,-0.0861136157,0.2105566487,0.4796444510,8.9148843683
1520521187967742152,-0.0170671133,-0.0187137614,-0.0777866303,0.2177720550,0.4268817104,8.8451369516
1520521187972759152,-0.0256164798,-0.0280661804,-0.0686433400,0.2009361070,0.3969045110,8.8232493207
1520521187977775152,-0.0349130115,-0.0324653579,-0.0594608571,0.1672642110,0.3849157293,8.8317237634
1520521187982791152,-0.0447163631,-0.0394850076,-0.0511090861,0.1648590756,0.3477425635,8.8852420449
1520521187987805152,-0.0547699982,-0.0444592367,-0.0449056541,0.1408077214,0.3225624878,8.8959599977
1520521187992822152,-0.0675852348,-0.0468091744,-0.0397592638,0.1684667787,0.3141663506,8.8689696559
1520521187997838152,-0.0811504123,-0.0477090406,-0.0321654449,0.1564411016,0.3009767426,8.9283689108
1520521188002855152,-0.0902000360,-0.0520935510,-0.0283943466,0.1480231276,0.2889859940,8.9482189868
1520521188007870152,-0.1002531849,-0.0558985998,-0.0235347517,0.1804924559,0.2805894822,8.9839375983
1520521188012886152,-0.1095494500,-0.0591278685,-0.0159666518,0.2021386747,0.3309516941,9.0092449620
1520521188017901152,-0.1168331251,-0.0609001554,-0.0081206243,0.1732770496,0.3549367504,9.0478532471
1520521188022917152,-0.1211020454,-0.0614977100,-0.0032473101,0.1828975913,0.3837153713,9.1081630281
1520521188027934152,-0.1271315550,-0.0638471746,0.0026981163,0.2045438101,0.4112939151,9.1404654730
1520521188032950152,-0.1314012633,-0.0635640197,0.0051431867,0.2273925967,0.4556603313,9.2331713277
1520521188037965152,-0.1308911542,-0.0624179523,0.0124558848,0.2370131384,0.4892355138,9.2330449458
1520521188042980152,-0.1293821380,-0.0647630064,0.0178462177,0.2334054352,0.5024263395,9.2876879640
1520521188047996152,-0.1261090630,-0.0650749640,0.0259543041,0.2574567895,0.5360003981,9.3571497587
1520521188053013152,-0.1220823149,-0.0668493762,0.0362142421,0.2526465187,0.5491913174,9.3292922613
1520521188058029152,-0.1160500100,-0.0700704539,0.0429422342,0.2129617841,0.5755754975,9.4261107509
1520521188063045152,-0.1080066128,-0.0735857705,0.0510169989,0.2297977321,0.5635827821,9.4782550514
1520521188068060152,-0.0984537093,-0.0768134825,0.0607144617,0.2442285447,0.6139455559,9.4699304708
1520521188073077152,-0.0911671999,-0.0823680579,0.0685045191,0.2406208415,0.6163441177,9.5350433087
1520521188078092152,-0.0833760737,-0.0882218335,0.0792674248,0.2718876021,0.6043502783,9.5975064442
1520521188083108152,-0.0725694047,-0.0937815863,0.0894858611,0.2815081438,0.6331288992,9.6241140505
1520521188088123152,-0.0660304172,-0.0964306245,0.1002755544,0.2827107115,0.5947563120,9.6752740983
1520521188093140152,-0.0557271809,-0.1022805019,0.1099516093,0.2935338209,0.6127425754,9.7076912434
1520521188098155152,-0.0459237274,-0.1063837259,0.1201830279,0.3103697689,0.5947541578,9.7493820951
1520521188103171152,-0.0373713540,-0.1055295346,0.1288312973,0.2899261178,0.6055480139,9.8692713843
1520521188108188152,-0.0263066509,-0.1046721735,0.1366632617,0.2815081438,0.6451203035,9.9495026643
1520521188113205152,-0.0190061495,-0.0994433360,0.1437239355,0.2887235500,0.6750982521,10.0551583003
1520521188118218152,-0.0094431627,-0.0921673648,0.1483610574,0.3151800397,0.7326549319,10.1966262232
1520521188123235152,-0.0008850224,-0.0857710401,0.1548871982,0.3548647743,0.7950071431,10.3158799780
1520521188128251152,0.0064176392,-0.0773296885,0.1592668670,0.4149931599,0.8249809707,10.3931291366
1520521188133266152,0.0119660860,-0.0677344144,0.1677168837,0.4811343841,0.8753397172,10.4819213308
1520521188138284152,0.0162546514,-0.0604699804,0.1758809034,0.5496807438,0.9292956976,10.6009023496
1520521188143299152,0.0210509110,-0.0520514663,0.1883816164,0.6266450774,0.9232940013,10.6722119978
1520521188148315152,0.0215695431,-0.0491774878,0.2032829380,0.7048119787,0.9556647048,10.7620668254
1520521188153330152,0.0233435206,-0.0489334905,0.2211379232,0.6783554890,0.9496710632,10.8250859569
1520521188158347152,0.0210985634,-0.0478191003,0.2398186829,0.7432941455,0.9124926525,10.8268144213
1520521188163362152,0.0148324681,-0.0487539897,0.2614673534,0.7661429321,0.9076943112,10.8393802860
1520521188168377152,0.0075570925,-0.0502611156,0.2790552561,0.6939888693,0.9065007904,10.8121923039
1520521188173394152,-0.0009677440,-0.0488650865,0.3004553659,0.6759503536,0.8837185273,10.7996065137
1520521188178409152,-0.0132653131,-0.0477524492,0.3183431568,0.6134168325,0.8513466061,10.7630581422
1520521188183425152,-0.0283203085,-0.0425658820,0.3378904803,0.5340473635,0.8129802941,10.6836801619
1520521188188442152,-0.0456396278,-0.0373714599,0.3541954535,0.4474624882,0.7914025100,10.5683295787
1520521188193458152,-0.0609420840,-0.0254656647,0.3673012731,0.3187877429,0.7734254253,10.3894672469
1520521188198473152,-0.0807652766,-0.0106434259,0.3788144492,0.1756821850,0.7518520432,10.3048825441
1520521188203489152,-0.0998434055,0.0015741299,0.3838131159,0.0927050128,0.7146851526,10.2034577746
1520521188208506152,-0.1206760000,0.0196296134,0.3848013229,0.0482100075,0.6919049500,10.0900229716
1520521188213522152,-0.1405078842,0.0353587852,0.3841466030,-0.0443877064,0.6355525619,9.9887105519
1520521188218536152,-0.1595895140,0.0519784314,0.3775451424,-0.1081237952,0.6139729983,9.8987047396
1520521188223553152,-0.1784122785,0.0738416407,0.3715243224,-0.0948955504,0.5983831425,9.8102682448
1520521188228569152,-0.1949751608,0.0930774479,0.3676436614,-0.1345802849,0.5732042844,9.7839497569
1520521188233584152,-0.2087814048,0.1091200348,0.3596752240,-0.0948955504,0.5696037724,9.7533512552
1520521188238600152,-0.2183141612,0.1260377206,0.3519760674,-0.0323620293,0.5719971829,9.7399566701
1520521188243617152,-0.2235808240,0.1374156751,0.3461205592,-0.0287543262,0.5959797104,9.7108445693
1520521188248633152,-0.2238229177,0.1479221735,0.3399785014,-0.0251466230,0.5995768507,9.6829144912
1520521188253648152,-0.2197969340,0.1558093418,0.3332674097,-0.0347671647,0.6295561105,9.7097082091
1520521188258664152,-0.2087304941,0.1657345880,0.3281820868,-0.0119183782,0.6823165096,9.7594065522
1520521188263680152,-0.1936474560,0.1712848141,0.3252203172,0.0181458146,0.7362754872,9.7857906164
1520521188268695152,-0.1725405890,0.1730566885,0.3195129871,0.0566279814,0.8381994260,9.8283159871
1520521188273711152,-0.1459050654,0.1727815678,0.3172969242,0.0698562263,0.8645794851,9.8095672028
1520521188278728152,-0.1227922143,0.1687148844,0.3158701330,0.0530202783,0.8513902517,9.8492568307
1520521188283742152,-0.0921438758,0.1614430113,0.3154870697,0.0758690649,0.8825661232,9.8385447362
1520521188288759152,-0.0569691278,0.1544555536,0.3183443792,0.0686536586,0.8417959107,9.8270332846
1520521188293775152,-0.0182788347,0.1460147371,0.3203724016,0.0818819034,0.8190112124,9.7362795180
1520521188298791152,0.0146262614,0.1334915442,0.3226505812,0.1275794765,0.7902282832,9.6382426978
1520521188303807152,0.0487964256,0.1253308703,0.3282063243,0.1816950236,0.6966911154,9.5053227679
1520521188308823152,0.0812000610,0.1110475185,0.3348008332,0.1985309716,0.6247413788,9.3727446467
1520521188313839152,0.1093384339,0.1011303471,0.3425188063,0.3055594980,0.5359966517,9.1974678347
1520521188318854152,0.1334614748,0.0929497095,0.3540452280,0.3007492272,0.3789096309,8.9977790782
1520521188323871152,0.1583380673,0.0871120984,0.3612592998,0.3356236908,0.2541963107,8.7639703081
1520521188328886152,0.1766805413,0.0821511801,0.3665983545,0.3488519357,0.1378786594,8.6698213181
1520521188333901152,0.1895015645,0.0809695387,0.3744114903,0.3813212639,0.0719234073,8.5800845107
1520521188338918152,0.2030741554,0.0792105226,0.3803249584,0.3993597796,-0.0995550782,8.4243488605
1520521188343933152,0.2106147864,0.0783298531,0.3838213841,0.4570830299,-0.2098804928,8.3320852246
1520521188348949152,0.2181593379,0.0821193488,0.3843773743,0.4895523581,-0.2686409023,8.2981243111
1520521188353966152,0.2234440503,0.0882434051,0.3833320743,0.5304396603,-0.3286011080,8.2536233359
1520521188358982152,0.2277225599,0.0952485056,0.3795898515,0.6134168325,-0.3429972556,8.2400461355
1520521188363998152,0.2352735487,0.1089683850,0.3715639580,0.6615195411,-0.3729795126,8.2744714854
1520521188369012152,0.2450931387,0.1293982789,0.3608795359,0.7517121195,-0.3166269372,8.3606994438
1520521188374029152,0.2584365068,0.1565430502,0.3459109763,0.7781686092,-0.2422822914,8.4812324047
1520521188379045152,0.2775660010,0.1904013997,0.3274657164,0.8647534845,-0.1427603798,8.5906962612
1520521188384060152,0.3034839155,0.2298125538,0.3039097216,0.9681743079,-0.0756165708,8.7453514332
1520521188389077152,0.3349357283,0.2733059856,0.2801040362,1.0607720218,0.0610782256,8.9256112960
1520521188394093152,0.3699005379,0.3147691170,0.2533002502,1.1377363554,0.1893802567,9.1176529495
1520521188399109152,0.4066195585,0.3536148473,0.2248499139,1.2279289339,0.3164821171,9.3130534486
1520521188404124152,0.4395502629,0.3773012779,0.1984553453,1.3169189446,0.4447832115,9.5305452185
1520521188409140152,0.4717179127,0.3916514534,0.1763197724,1.3974909814,0.5742841020,9.7237127314
1520521188414155152,0.4980903253,0.3911227281,0.1600335666,1.4516065285,0.7037870531,9.8787870051
1520521188419171152,0.5204397455,0.3847457976,0.1507445599,1.4804681536,0.8009151795,10.0015986264
1520521188424188152,0.5372419734,0.3617446714,0.1462089313,1.5225580235,0.9352156288,10.0940294998
1520521188429204152,0.5457470196,0.3323152679,0.1470507147,1.4407834191,0.9723953509,10.1610313995
1520521188434219152,0.5487108168,0.2920959150,0.1502554249,1.4275551742,1.0035740321,10.1564811765
1520521188439235152,0.5486562956,0.2480793690,0.1564128405,1.3505908406,0.9987834647,10.1723428489
1520521188444251152,0.5400527764,0.2011485440,0.1614817103,1.2603982621,0.8752790255,10.1745033140
1520521188449267152,0.5284316483,0.1530524563,0.1660061966,1.1641928451,0.8429097269,10.1429312600
1520521188454283152,0.5160594817,0.1064100822,0.1716253821,1.0198847195,0.7433923110,10.0712178528
1520521188459299152,0.4979118956,0.0667754261,0.1710861007,0.9645666047,0.6258808578,9.9649536368
1520521188464315152,0.4749871698,0.0259762750,0.1694646111,0.9645666047,0.5647246962,9.9987154478
1520521188469331152,0.4568564376,0.0000425191,0.1668654475,0.9044382191,0.4915818134,9.9540484161
1520521188474347152,0.4301804514,-0.0244274636,0.1605056254,0.8515252397,0.4352263345,9.9836719964
1520521188479363152,0.4012474882,-0.0436453981,0.1512140145,0.8515252397,0.4244340707,9.9534667776
1520521188484378152,0.3725736999,-0.0567427022,0.1414275299,0.8286764532,0.4016521822,9.9513871032
1520521188489395152,0.3431471598,-0.0686733068,0.1311102459,0.8479175366,0.3872609986,9.9709703016
1520521188494411152,0.3104542604,-0.0811923309,0.1224178586,0.8984253805,0.3872570649,9.9972080002
1520521188499427152,0.2772625464,-0.0910898196,0.1140169584,0.9741871464,0.4340176408,10.0115328488
1520521188504442152,0.2405539622,-0.1024565357,0.1096696654,1.0932413500,0.4627877386,10.0440481588
1520521188509457152,0.2030956959,-0.1141302289,0.1110030132,1.1461543294,0.5551174302,10.0631995444
1520521188514473152,0.1679013105,-0.1272737987,0.1174614171,1.2026750119,0.6150700493,10.0893202507
1520521188519490152,0.1311982462,-0.1433420026,0.1276880331,1.3048932675,0.6642268456,10.0801423703
1520521188524506152,0.0955039368,-0.1582508304,0.1403565875,1.3854653043,0.7313724341,10.0630226332
1520521188529522152,0.0613123122,-0.1787033863,0.1559561079,1.4443911222,0.7901257255,10.0147438857
1520521188534537152,0.0251242810,-0.1913002740,0.1756775738,1.4924938307,0.8117065067,10.0096060595
1520521188539553152,-0.0082953270,-0.2006901205,0.1951478137,1.4504039608,0.7925235381,9.9577379680
1520521188544568152,-0.0384511749,-0.2127026047,0.2151330703,1.4744553150,0.8500804052,9.9051512606
1520521188549585152,-0.0680980034,-0.2206384223,0.2362307002,1.4576193670,0.8536791377,9.8750958806
1520521188554601152,-0.0954895170,-0.2314791864,0.2543258940,1.5129374818,0.8212980379,9.8060225268
1520521188559617152,-0.1221202735,-0.2382446423,0.2740740861,1.5502170809,0.8129011515,9.7952085599
1520521188564633152,-0.1464845929,-0.2429760762,0.2962685523,1.5694581643,0.7757262998,9.7230046033
1520521188569648152,-0.1663303672,-0.2491531910,0.3149264055,1.5742684352,0.7541413975,9.7287895510
1520521188574664152,-0.1851672531,-0.2535859755,0.3352190056,1.6355993886,0.7253572507,9.7212477935
1520521188579681152,-0.2014905745,-0.2559707993,0.3528170412,1.6452199303,0.6881831483,9.6735425005
1520521188584695152,-0.2158088723,-0.2621421059,0.3701118970,1.6187634406,0.6905834897,9.6493926500
1520521188589712152,-0.2258533297,-0.2668540877,0.3871393880,1.6103454666,0.6773936006,9.6367038646
1520521188594728152,-0.2351480188,-0.2718447754,0.3995639755,1.6644610137,0.6989739136,9.5908324748
1520521188599744152,-0.2399183175,-0.2762516502,0.4122551541,1.6728789877,0.6977741175,9.5616981098
1520521188604760152,-0.2416688511,-0.2777442267,0.4252335087,1.7293996702,0.7133585410,9.5251063082
1520521188609775152,-0.2416676789,-0.2827239872,0.4349353685,1.7378176442,0.7421372555,9.5424284680
1520521188614792152,-0.2371413676,-0.2862443244,0.4443693968,1.8075665715,0.7625172105,9.5905397420
1520521188619806152,-0.2308561409,-0.2900560854,0.4540684809,1.8412384675,0.7828999752,9.5867056898
1520521188624823152,-0.2192957910,-0.2941513359,0.4615911735,1.8761129311,0.8296637356,9.6165363818
1520521188629839152,-0.2057191542,-0.2935821895,0.4686046099,1.8484538737,0.8236701876,9.6632972029
1520521188634854152,-0.1853565238,-0.2918426613,0.4748026994,1.8640872540,0.8428552168,9.6910177827
1520521188639871152,-0.1702746384,-0.2903863872,0.4772207245,1.9085822594,0.8500465939,9.7556577410
1520521188644887152,-0.1504147311,-0.2863050533,0.4793793438,1.8556692800,0.8800292256,9.7863592728
1520521188649902152,-0.1272959798,-0.2842446488,0.4750232325,1.8628846863,0.9160028763,9.9036305016
1520521188654919152,-0.1016549997,-0.2748964613,0.4699063934,1.8460487383,0.9243981705,9.9119211947
1520521188659935152,-0.0810422426,-0.2681770742,0.4664021564,1.8304153581,0.9627718816,9.9097116537
1520521188664949152,-0.0566594660,-0.2576529144,0.4572383549,1.8195922486,0.9819589713,9.9737162073
1520521188669966152,-0.0363005442,-0.2471201318,0.4442943784,1.8039588684,1.0143369804,10.0272954227
1520521188674982152,-0.0131751831,-0.2363007091,0.4335118581,1.7835152172,1.0455162236,10.0553554608
1520521188679996152,0.0074383817,-0.2231446389,0.4203168768,1.7318048056,1.0083468978,10.0826243387
1520521188685012152,0.0275479060,-0.2076423924,0.4014591497,1.6981329096,1.0431245926,10.0666481540
1520521188690028152,0.0479014726,-0.1965064447,0.3809443343,1.7185765607,1.0155427706,10.0978539497
1520521188695045152,0.0642342147,-0.1850792309,0.3598981177,1.7041457482,1.0275352988,10.0886855653
1520521188700062152,0.0788080806,-0.1751169132,0.3415495118,1.6716764199,0.9939618958,10.1366822454
1520521188705077152,0.0923752615,-0.1639792532,0.3194240225,1.6608533105,1.0251403897,10.1321086123
1520521188710092152,0.1014151940,-0.1548794150,0.2959386431,1.6849046648,0.9939608655,10.0528791251
1520521188715108152,0.1086968267,-0.1451974969,0.2724609770,1.7089560190,0.9615822009,10.0561630280
1520521188720125152,0.1122124033,-0.1349430277,0.2522413087,1.7293996702,0.9639788895,9.9978545057
1520521188725141152,0.1154818247,-0.1223641367,0.2344748048,1.7570587276,0.9543836119,10.0127025155
1520521188730156152,0.1139745454,-0.1109511975,0.2161671846,1.7847177850,0.9435891939,9.9950116639
1520521188735172152,0.1076940820,-0.0992523866,0.1992233846,1.8207948163,0.8992181885,9.9795959064
1520521188740188152,0.1021658842,-0.0898894557,0.1841542211,1.8400358998,0.9112080941,9.9782347881
1520521188745204152,0.0943797291,-0.0805397941,0.1736885383,1.8268076549,0.8860271755,9.9830366757
1520521188750220152,0.0838290243,-0.0708976457,0.1624185749,1.8508590092,0.8560467917,9.9096167389
1520521188755236152,0.0692566090,-0.0638882746,0.1543826220,1.8508590092,0.8440553875,9.9049798565
1520521188760252152,0.0556891264,-0.0565849397,0.1455353876,1.7979460298,0.8248732618,9.9078378763
1520521188765267152,0.0421266109,-0.0472491976,0.1394091738,1.7714895401,0.8212779010,9.8685860011
1520521188770283152,0.0290636156,-0.0393665389,0.1319181816,1.7330073733,0.8140860556,9.8480489878
1520521188775300152,0.0154903700,-0.0361418591,0.1227692782,1.7330073733,0.8212808981,9.9049870255
1520521188780315152,0.0021689446,-0.0349676989,0.1176625348,1.7173739930,0.8128881327,9.8784180657
1520521188785331152,-0.0093924637,-0.0326251262,0.1117497791,1.6452199303,0.8164911736,9.8628468457
1520521188790347152,-0.0196946533,-0.0294130066,0.1077351802,1.6392070917,0.8464701525,9.8373089705
1520521188795363152,-0.0299945612,-0.0267938541,0.1075037777,1.6247762791,0.8548652594,9.7967662074
1520521188800379152,-0.0415458588,-0.0200943536,0.1067647403,1.5538247841,0.9196243682,9.8148258207
1520521188805395152,-0.0528465633,-0.0145632065,0.1070985274,1.4600245025,0.9280256566,9.7762177353
1520521188810411152,-0.0621338780,-0.0040653515,0.1028670929,1.4335680128,0.9592053682,9.7671476921
1520521188815426152,-0.0716718329,0.0064302198,0.0994477628,1.4239474711,0.9795915046,9.7614107340
1520521188820443152,-0.0827153854,0.0169179160,0.0987366920,1.3457805697,0.9688053287,9.7842628219
1520521188825458152,-0.0914930261,0.0300267738,0.0988530661,1.3060958352,0.9843972450,9.7439588489
1520521188830474152,-0.1005232398,0.0428470623,0.0978855003,1.3097035383,0.9903926661,9.8066736606
1520521188835489152,-0.1108069172,0.0559495019,0.1001690420,1.2772342101,1.0107805822,9.7802405074
1520521188840506152,-0.1241170910,0.0611841062,0.1021276151,1.2074852827,1.0071885932,9.7693014691
1520521188845522152,-0.1366658490,0.0704918334,0.1065508244,1.2086878505,1.0347687292,9.7506685660
1520521188850538152,-0.1469530548,0.0777520139,0.1142008222,1.2339417724,1.0203770773,9.7283560568
1520521188855554152,-0.1567454528,0.0783061765,0.1234220311,1.2808419132,0.9963906161,9.6744643245
1520521188860569152,-0.1708160938,0.0730251474,0.1347710797,1.3060958352,0.9568170153,9.6893649779
1520521188865584152,-0.1821205580,0.0683243282,0.1474721700,1.3626165177,0.9448212090,9.6365300557
1520521188870601152,-0.1924178118,0.0618610270,0.1655689728,1.4528090962,0.9052425505,9.5450435362
1520521188875617152,-0.2017149316,0.0510244381,0.1847127460,1.4131243617,0.9316267306,9.4779997283
1520521188880633152,-0.2072321407,0.0483502780,0.2031001270,1.4335680128,0.9064431895,9.4615552831
1520521188885648152,-0.2082323062,0.0410157377,0.2214435377,1.4407834191,0.9028452063,9.3638684686
1520521188890664152,-0.2104959599,0.0290207379,0.2389420750,1.4516065285,0.8788615549,9.3196250396
1520521188895681152,-0.2072238689,0.0219799843,0.2570092285,1.4876835599,0.8824561664,9.2692981899
1520521188900697152,-0.2021922862,0.0166947829,0.2726515405,1.5345837007,0.8680628285,9.1944785117
1520521188905712152,-0.1918776611,0.0169537826,0.2861619227,1.5490145132,0.8416806153,9.1780937611
1520521188910729152,-0.1813076482,0.0192482018,0.3013106752,1.5634453258,0.8224932446,9.1094055166
1520521188915743152,-0.1649593422,0.0218428259,0.3140160031,1.5959146540,0.7949104860,9.0998192232
1520521188920760152,-0.1478566536,0.0256069256,0.3253760936,1.6247762791,0.7733237106,9.1262886609
1520521188925776152,-0.1307500955,0.0314070749,0.3381044753,1.6428147948,0.7865128503,9.0470744334
1520521188930791152,-0.1096263159,0.0360498172,0.3483815839,1.6331942531,0.7121668934,9.0181869741
1520521188935806152,-0.0859859843,0.0433160048,0.3586740331,1.6404096594,0.6917809442,8.9879208797
1520521188940824152,-0.0625925097,0.0532016410,0.3700691404,1.6584481751,0.6486104841,8.9552473693
1520521188945839152,-0.0376890859,0.0648369035,0.3812042399,1.5947120863,0.6450180268,8.9616819651
1520521188950855152,-0.0122873730,0.0744377703,0.3904290231,1.5285708621,0.6510188802,8.9855627756
1520521188955870152,0.0158753770,0.0837578051,0.3961293527,1.5285708621,0.7061793397,8.9599418190
1520521188960891152,0.0397634085,0.0916214289,0.4010148634,1.4828732890,0.7169751626,8.9847811101
1520521188965902152,0.0639050715,0.1015262996,0.4053743772,1.4744553150,0.7529500309,9.0499080268
1520521188970918152,0.0905486397,0.1047368667,0.4072431797,1.4720501796,0.7445562352,9.0917768046
1520521188975935152,0.1121598098,0.1038689950,0.4080080100,1.4696450442,0.7097813503,9.1638870507
1520521188980951152,0.1322662212,0.1047466545,0.4096006167,1.4371757159,0.7421606705,9.2048465535
1520521188985965152,0.1513586831,0.0995063019,0.4106073138,1.4179346325,0.7529544329,9.2340769092
1520521188990982152,0.1694499563,0.0983500378,0.4097531797,1.4131243617,0.7157814544,9.1969713724
1520521188995998152,0.1840270487,0.0998133993,0.4094666793,1.3998961168,0.7205790464,9.2621755121
1520521189001013152,0.1955814317,0.0974941364,0.4067219664,1.3746421948,0.7409664004,9.2833200307
1520521189006030152,0.2066339658,0.0960502870,0.4034437644,1.3397677312,0.6918043592,9.3127610191
1520521189011046152,0.2144207600,0.0957721526,0.3996394303,1.3048932675,0.6534345818,9.2643278385
1520521189016061152,0.2224650159,0.1013276347,0.3937147241,1.2844496164,0.6510378932,9.2761506027
1520521189021077152,0.2252254414,0.1022196252,0.3874937038,1.2904624549,0.6186606334,9.3493387187
1520521189026093152,0.2277394099,0.1074859273,0.3799537670,1.2603982621,0.6378492217,9.3647205071
1520521189031109152,0.2279906774,0.1121693027,0.3721430387,1.1545723034,0.6138746553,9.3553146432
1520521189036124152,0.2239607616,0.1116126387,0.3618653160,1.0727976989,0.5874999349,9.4607292684
1520521189041141152,0.2194219167,0.1078571039,0.3491291598,1.0246949904,0.5827071196,9.4821207392
1520521189046157152,0.2103514326,0.1020783160,0.3296221956,0.9429203859,0.5107650631,9.5306347455
1520521189051173152,0.1992672176,0.0951390298,0.3079457057,0.9032356514,0.4723956603,9.5205991357
1520521189056189152,0.1881846336,0.0905359188,0.2843931793,0.7300659007,0.3536942454,9.4352396318
1520521189061204152,0.1768547614,0.0914806703,0.2565546238,0.6723426505,0.2937417199,9.3754284559
1520521189066220152,0.1692960456,0.0944702325,0.2273718996,0.5617064209,0.2194036304,9.3870371157
1520521189071237152,0.1599764425,0.0992212528,0.1930654089,0.3404339617,0.0911128385,9.3428302072
1520521189076252152,0.1499026450,0.1074853460,0.1525644399,0.2261900290,-0.0144026211,9.3033700510
1520521189081267152,0.1410773009,0.1137277221,0.1055524741,0.2057463779,-0.0791546117,9.2978214615
1520521189086283152,0.1332519614,0.1164753346,0.0579708726,0.2069489456,-0.1127306372,9.3524632638
1520521189091300152,0.1294429967,0.1133851770,0.0146660762,0.2310002998,-0.0755591573,9.4033272471
1520521189096316152,0.1213632260,0.1105818164,-0.0275463793,0.2911286855,-0.0839578233,9.4480737939
1520521189101331152,0.1147791969,0.1002088762,-0.0719838025,0.3885366702,-0.0503894779,9.5586587624
1520521189106348152,0.1122170351,0.0854434337,-0.1078045709,0.4991728998,0.0203511904,9.7074294763
1520521189111364152,0.1081422306,0.0633760333,-0.1374555604,0.6410758899,0.1306610575,9.8512086947
1520521189116378152,0.0960207514,0.0342976851,-0.1617340510,0.7288633330,0.2169923308,9.9327822539
1520521189121395152,0.0856670633,0.0072400501,-0.1786955078,0.7000017079,0.3465017444,9.9863955086
1520521189126411152,0.0768177889,-0.0192203849,-0.2007956908,0.6518989994,0.4460341459,10.0227931182
1520521189131428152,0.0634450453,-0.0465603879,-0.2215414126,0.5641115563,0.4868117575,10.0305806935
1520521189136441152,0.0518335890,-0.0739069859,-0.2395849425,0.4125880245,0.5084080863,10.0448180660
1520521189141458152,0.0389606322,-0.1015301638,-0.2633098256,0.3235980137,0.5132115788,10.0387066991
1520521189146474152,0.0238335562,-0.1224472845,-0.2888731986,0.2766978729,0.4856350018,10.0554601065
1520521189151490152,0.0127188170,-0.1486033809,-0.3161073301,0.2370131384,0.5036251989,10.0604774091
1520521189156506152,0.0016067162,-0.1733047400,-0.3425187084,0.1804924559,0.5228158477,10.0854138604
1520521189161522152,-0.0122654103,-0.1971432265,-0.3651306410,0.1648590756,0.5815749460,10.1447780701
1520521189166537152,-0.0243778334,-0.2221538462,-0.3850492740,0.1576436693,0.5863720697,10.1134657363
1520521189171554152,-0.0384919830,-0.2419254312,-0.4030303364,0.1396051536,0.5971657384,10.0752800376
1520521189176571152,-0.0531058723,-0.2602432041,-0.4199171664,0.1167563671,0.6895013305,10.0242780606
1520521189181585152,-0.0689740524,-0.2756417965,-0.4389437990,0.1780873205,0.6475266391,10.0016412945
1520521189186601152,-0.0810687082,-0.2901742282,-0.4544536667,0.2057463779,0.6487236253,9.9630201584
1520521189191618152,-0.0919013734,-0.3017974213,-0.4680498158,0.2466336801,0.6115470877,9.9266319734
1520521189196633152,-0.1007215388,-0.3128414283,-0.4800219771,0.3187877429,0.5371947619,9.8423278043
1520521189201649152,-0.1090352803,-0.3215563475,-0.4911656495,0.3777135608,0.4940211173,9.8139048979
1520521189206664152,-0.1178495533,-0.3294002237,-0.5012195357,0.4053726182,0.4820275589,9.8496738375
1520521189211682152,-0.1238928157,-0.3352164370,-0.5063931680,0.4149931599,0.4760311075,9.8414510361
1520521189216695152,-0.1261610954,-0.3366589487,-0.5120815468,0.4330316756,0.4292632261,9.8227267612
1520521189221713152,-0.1286798388,-0.3378116312,-0.5172261439,0.4919574935,0.3740981773,9.8268555789
1520521189226729152,-0.1294295052,-0.3322646941,-0.5212406936,0.4799318164,0.3980819223,9.8188142350
1520521189231745152,-0.1311824341,-0.3264318653,-0.5233573320,0.5015780352,0.3956819556,9.7988494354
1520521189236759152,-0.1344383574,-0.3159323757,-0.5273294219,0.5015780352,0.4124699215,9.7616444581
1520521189241776152,-0.1351721891,-0.3001935361,-0.5288312505,0.5003754675,0.4328554024,9.8092841865
1520521189246791152,-0.1336376824,-0.2774511120,-0.5338010222,0.4739189778,0.4640351139,9.8060248631
1520521189251807152,-0.1338572141,-0.2532626525,-0.5349687689,0.4630958684,0.5239929780,9.8269903328
1520521189256824152,-0.1315670977,-0.2302329192,-0.5383144423,0.5172114155,0.5947380483,9.8659075087
1520521189261840152,-0.1310290830,-0.2040073864,-0.5383858440,0.5857577751,0.6259103607,9.8977499484
1520521189266854152,-0.1274757490,-0.1789505808,-0.5368484633,0.6158219680,0.6618822319,9.9043951055
1520521189271871152,-0.1259345659,-0.1553522139,-0.5350479183,0.6170245357,0.6702761212,9.9380773898
1520521189276888152,-0.1198695255,-0.1335098517,-0.5297520163,0.6470887285,0.6450918308,9.9842950777
1520521189281903152,-0.1148123268,-0.1160495776,-0.5204294052,0.6531015671,0.6139137115,10.0807249034
1520521189286918152,-0.1090074807,-0.1038368433,-0.5100660262,0.6482912962,0.6223080691,10.1167900008
1520521189291936152,-0.1006991063,-0.0989091946,-0.4992217998,0.7048119787,0.6115114033,10.1662225773
1520521189296951152,-0.0929012959,-0.1009800704,-0.4865361727,0.7444967133,0.6246988572,10.2088227740
1520521189301966152,-0.0878731004,-0.1085956196,-0.4711821913,0.7877891509,0.6234963450,10.2397804480
1520521189306983152,-0.0765677190,-0.1220451391,-0.4526377889,0.8226636146,0.6091039438,10.2382928895
1520521189311998152,-0.0660181746,-0.1387081965,-0.4311404355,0.9056407868,0.6474699748,10.2374478218
1520521189317014152,-0.0532097635,-0.1600441751,-0.4053541176,0.9826051204,0.6630528061,10.2796828231
1520521189322030152,-0.0396447313,-0.1805108038,-0.3776687094,1.0222898549,0.6642488557,10.2688360913
1520521189327046152,-0.0268270014,-0.1980726238,-0.3467131193,1.0295052612,0.6702439959,10.2094906726
1520521189332061152,-0.0122486821,-0.2138825337,-0.3168296415,1.0463412092,0.6066882422,10.1698758823
1520521189337077152,0.0000738832,-0.2267860403,-0.2844848191,1.0391258029,0.5934982595,10.1629861117
1520521189342095152,0.0181851661,-0.2326918685,-0.2529090151,0.9826051204,0.5695198530,10.1252088856
1520521189347110152,0.0373100026,-0.2327710692,-0.2207495245,0.9789974173,0.5287493596,10.0927437276
1520521189352125152,0.0556823069,-0.2316842987,-0.1888502872,0.9381101150,0.5095662973,10.0768903936
1520521189357141152,0.0755661051,-0.2259260438,-0.1601648317,0.9056407868,0.4951791410,10.0818690380
1520521189362157152,0.0952082369,-0.2140531830,-0.1298089492,0.8743740263,0.4915841549,10.0031510886
1520521189367172152,0.1181209544,-0.1975081486,-0.1026701156,0.8851971357,0.4795919077,9.9891117090
1520521189372188152,0.1410397367,-0.1789343489,-0.0714575319,0.9032356514,0.5119672943,9.9993638566
1520521189377205152,0.1606864436,-0.1638569867,-0.0408066497,0.9332998442,0.5347486208,10.0525076346
1520521189382220152,0.1775748381,-0.1476297380,-0.0047308232,0.9910230944,0.5575277932,10.0902743250
1520521189387236152,0.1954692199,-0.1308193264,0.0313475825,0.9946307975,0.6066922696,10.1843249272
1520521189392252152,0.2123581907,-0.1125451017,0.0647335117,0.9838076881,0.6186845167,10.3041194066
1520521189397269152,0.2254686974,-0.1033162006,0.1021157144,0.9741871464,0.5767153512,10.3356318607
1520521189402283152,0.2380814481,-0.0897130864,0.1381794674,0.9705794433,0.6030967215,10.3391276822
1520521189407300152,0.2484385743,-0.0740820930,0.1783211710,1.0078590424,0.6066912393,10.3782742119
1520521189412317152,0.2557744456,-0.0601896618,0.2143969482,0.9609589016,0.6510630877,10.4495782248
1520521189417331152,0.2626125178,-0.0416301761,0.2486154070,0.9369075473,0.6834417523,10.4474564658
1520521189422348152,0.2692010985,-0.0204425006,0.2806899732,0.9152613285,0.7326081956,10.4685378051
1520521189427364152,0.2735370107,0.0080318157,0.3117421334,0.8791842971,0.7314118649,10.4084586405
1520521189432380152,0.2740996611,0.0353464013,0.3400869431,0.8984253805,0.7553931749,10.3733836542
1520521189437394152,0.2746625311,0.0626602585,0.3687022988,0.9212741671,0.7769759229,10.3870859375
1520521189442412152,0.2734690379,0.0923059596,0.3967976144,0.8996279482,0.7949647152,10.4105219675
1520521189447427152,0.2730249131,0.1199180919,0.4227116010,0.9248818702,0.7997593100,10.3300835511
1520521189452444152,0.2693124098,0.1472412018,0.4472767025,0.8960202451,0.8081555408,10.3303562871
1520521189457458152,0.2670992589,0.1707878301,0.4677519151,0.8863997034,0.7853726220,10.3281478571
1520521189462475152,0.2616201955,0.1966715390,0.4855455209,0.8936151097,0.7326098815,10.3385883733
1520521189467490152,0.2558834979,0.2178929970,0.5033040240,0.9260844379,0.7338064931,10.3034068488
1520521189472506152,0.2476275668,0.2353291137,0.5196855647,0.9669717402,0.6990282363,10.3320963866
1520521189477522152,0.2386092476,0.2463537470,0.5362901436,0.9826051204,0.6522605422,10.3285033932
1520521189482538152,0.2288260311,0.2486336355,0.5539116138,0.9513383599,0.6426698540,10.2521155784
1520521189487553152,0.2213031909,0.2523822591,0.5674818104,0.9982385007,0.5755143376,10.2040766621
1520521189492570152,0.2140276937,0.2546806144,0.5786055118,0.9741871464,0.5227540321,10.0683913715
1520521189497586152,0.2034763811,0.2505679587,0.5894158268,0.9357049796,0.4639991485,10.0060674574
1520521189502602152,0.1906632928,0.2470400996,0.5991526049,0.8455124011,0.4004517306,9.9442515381
1520521189507618152,0.1831278406,0.2470254910,0.6034953409,0.8491201043,0.3201090412,9.8489989644
1520521189512634152,0.1733257357,0.2464410675,0.6026974593,0.7348761716,0.2541652156,9.8153109398
1520521189517649152,0.1632705286,0.2446917359,0.6016206061,0.7072171142,0.1918120678,9.7354530289
1520521189522665152,0.1532139611,0.2432396162,0.5983816089,0.6747477859,0.1078747670,9.6126636600
1520521189527682152,0.1451691486,0.2429545507,0.5948772243,0.6386707545,0.0383274322,9.5898397543
1520521189532697152,0.1408997148,0.2473345713,0.5908603164,0.5641115563,-0.0132297991,9.5022928088
1520521189537712152,0.1338601015,0.2485133781,0.5849302673,0.5400602021,-0.0204227684,9.4734803271
1520521189542729152,0.1265669509,0.2499922122,0.5757563572,0.4715138424,-0.0551925021,9.4381549636
1520521189547745152,0.1180114137,0.2482704232,0.5646665056,0.3777135608,-0.0935576902,9.4565375362
1520521189552761152,0.1104616481,0.2485960041,0.5508848897,0.3440416648,-0.1163387357,9.3883210019
1520521189557777152,0.1016524403,0.2465892880,0.5373583686,0.2766978729,-0.1750913715,9.3657909036
1520521189562791152,0.0910789539,0.2425502038,0.5208435481,0.2213797581,-0.2530311907,9.3338653125
1520521189567807152,0.0810076732,0.2396834105,0.5019017735,0.1504282631,-0.2674153498,9.2822734650
1520521189572824152,0.0709345460,0.2359446489,0.4821416919,0.1167563671,-0.2985903783,9.2419565710
1520521189577840152,0.0621210845,0.2360009343,0.4599732638,0.0746664971,-0.3513492789,9.1866347891
1520521189582856152,0.0502835102,0.2328646486,0.4326456103,0.0049175698,-0.3477464253,9.1129329613
1520521189587870152,0.0381931356,0.2265135651,0.4088110663,0.0313740595,-0.3705321539,9.1161840994
1520521189592888152,0.0286191325,0.2210303354,0.3876839833,0.0301714918,-0.3777269028,9.0987706611
1520521189597903152,0.0182892061,0.2129192505,0.3684321140,-0.0035004042,-0.3717285782,9.0781739648
1520521189602920152,0.0064523649,0.2048046612,0.3502652286,-0.0660339253,-0.3825159717,9.0497395530
1520521189607935152,-0.0011111181,0.1984436950,0.3307510179,-0.1105289307,-0.3549322765,9.0768750562
1520521189612952152,-0.0084275246,0.1894625518,0.3104046950,-0.1285674464,-0.3537317312,9.0108072573
1520521189617966152,-0.0192604447,0.1810598855,0.2911515360,-0.1297700141,-0.3321471099,9.0107979143
1520521189622983152,-0.0298383768,0.1729377757,0.2759583218,-0.1105289307,-0.3201572042,9.0140853718
1520521189627998152,-0.0363985620,0.1630711194,0.2599326639,-0.0948955504,-0.3069678772,8.9988124720
1520521189633014152,-0.0452112433,0.1593197383,0.2450400748,-0.0564133836,-0.2793906445,9.0158431747
1520521189638030152,-0.0517691469,0.1488601149,0.2327976132,-0.0155260813,-0.2422204758,9.0142468093
1520521189643047152,-0.0608403877,0.1392787595,0.2186726669,-0.0107158105,-0.2590088164,9.0548913982
1520521189648062152,-0.0666385886,0.1326052450,0.2072693429,0.0530202783,-0.2734034655,9.0542850623
1520521189653078152,-0.0704258776,0.1238819000,0.1999049120,0.0746664971,-0.2434266408,9.0459101301
1520521189658094152,-0.0759736226,0.1139915992,0.1928054017,0.1347948828,-0.2266433578,9.0685513856
1520521189663109152,-0.0792549737,0.1064281618,0.1876132969,0.1504282631,-0.2362376988,9.0265713923
1520521189668125152,-0.0825294640,0.1029397371,0.1840755906,0.1540359662,-0.1714843969,9.0508781558
1520521189673142152,-0.0797744134,0.0971175002,0.1824027196,0.1347948828,-0.1678854771,9.0615212243
1520521189678158152,-0.0827983929,0.0945098835,0.1764363028,0.1432128568,-0.1966655029,9.0974938156
1520521189683173152,-0.0797887425,0.0916037755,0.1739735582,0.1287820442,-0.1546944641,9.1359440999
1520521189688187152,-0.0767786921,0.0904525307,0.1690892391,0.1732770496,-0.1499013679,9.1448034871
1520521189693205152,-0.0757750767,0.0907508649,0.1666546822,0.1853027267,-0.1343134790,9.1702384021
1520521189698221152,-0.0700002179,0.0875500849,0.1658078559,0.2346080030,-0.0983431063,9.1871555739
1520521189703237152,-0.0639630674,0.0901668958,0.1687926672,0.2694824666,-0.0539776268,9.1832864299
1520521189708252152,-0.0609442353,0.0889865137,0.1747301839,0.2899261178,-0.0347929722,9.2005008938
1520521189713269152,-0.0569089878,0.0965502465,0.1799208886,0.3837263994,0.0023730754,9.2913610223
1520521189718284152,-0.0521196242,0.1041135462,0.1853807389,0.4149931599,0.0515353976,9.2584687172
1520521189723300152,-0.0493411844,0.1093362409,0.1940730892,0.4053726182,0.1114931681,9.2910439214
1520521189728317152,-0.0458065155,0.1166003796,0.2022385091,0.5136037124,0.1666451981,9.3550167381
1520521189733331152,-0.0412670943,0.1224028904,0.2122847679,0.6158219680,0.2229968370,9.3911554559
1520521189738348152,-0.0389934162,0.1229493955,0.2260828543,0.6651272442,0.2829500181,9.4522107112
1520521189743364152,-0.0362161801,0.1214440226,0.2444637258,0.7048119787,0.2445744337,9.5018340533
1520521189748380152,-0.0339488845,0.1161577382,0.2601111717,0.7336736038,0.2517670284,9.5294375708
1520521189753396152,-0.0357025427,0.1120412441,0.2736106104,0.7577249581,0.2541634361,9.5791733210
1520521189758412152,-0.0324319845,0.1064690680,0.2873601451,0.7505095518,0.3129218788,9.6140505723
1520521189763427152,-0.0319193350,0.1052651199,0.3016892517,0.7733583384,0.3488943120,9.6486574147
1520521189768443152,-0.0344243335,0.1046522291,0.3125113086,0.7950045572,0.4268367536,9.6379114211
1520521189773460152,-0.0376781281,0.1066564046,0.3252485948,0.7950045572,0.4736032301,9.7017837343
1520521189778475152,-0.0436978720,0.1110065988,0.3320567898,0.7974096926,0.5059798342,9.6749994411
1520521189783489152,-0.0482052557,0.1156349281,0.3440047796,0.8322841563,0.5755272626,9.7454829540
1520521189788507152,-0.0547283069,0.1173529950,0.3543109970,0.8695637554,0.6162951336,9.8182954088
1520521189793523152,-0.0627618757,0.1182014167,0.3627195241,0.9008305159,0.6282841027,9.8365736872
1520521189798539152,-0.0712917539,0.1225411567,0.3730494830,0.9345024119,0.6786453780,9.8396832653
1520521189803554152,-0.0803280169,0.1227954890,0.3855136194,0.9645666047,0.7074224066,9.8579568780
1520521189808570152,-0.0931340249,0.1233419143,0.3971753420,1.0018462038,0.6906315372,9.8215839294
1520521189813586152,-0.1011644300,0.1250579336,0.4080254514,0.9862128236,0.7218104058,9.8356514198
1520521189818601152,-0.1114534431,0.1296898259,0.4178198087,0.9910230944,0.7050220653,9.8170266670
1520521189823618152,-0.1222413608,0.1360654578,0.4292517133,0.9886179590,0.7373990440,9.7949377698
1520521189828634152,-0.1312681991,0.1468256585,0.4358438710,0.9549460630,0.7757741600,9.7940659486
1520521189833649152,-0.1397856613,0.1637102303,0.4405879588,0.9585537662,0.8021549684,9.8102751233
1520521189838666152,-0.1515707610,0.1782544332,0.4482963341,0.9838076881,0.8465211972,9.8006889000
1520521189843682152,-0.1603480175,0.1872642399,0.4556863243,0.9501357922,0.9004851387,9.8381526278
1520521189848698152,-0.1653479155,0.2023960555,0.4625749066,0.9549460630,0.9628400661,9.9031250634
1520521189853713152,-0.1753770049,0.2140241886,0.4713399676,0.9489332245,1.0036113088,9.9008195432
1520521189858729152,-0.1851609544,0.2212823806,0.4798006697,0.9597563339,1.0611692062,9.9669002748
1520521189863745152,-0.1921790760,0.2300000352,0.4877262615,0.9753897141,1.1163284481,10.0085315018
1520521189868760152,-0.2002053882,0.2352148541,0.4977914103,1.0054539070,1.1762831277,10.0488554469
1520521189873777152,-0.2049639374,0.2404280393,0.5089326753,0.9922256621,1.2590248472,10.1035242839
1520521189878793152,-0.2102249549,0.2447625034,0.5216914799,1.0006436361,1.3273751957,10.1579964620
1520521189883807152,-0.2169997401,0.2479454072,0.5290332746,0.9838076881,1.3333722091,10.1721002136
1520521189888824152,-0.2212583771,0.2505334148,0.5412357819,0.9417178182,1.3513625935,10.1957352295
1520521189893841152,-0.2189841228,0.2531268960,0.5523439709,0.9453255213,1.4089210529,10.1782118268
1520521189898856152,-0.2192318776,0.2484318657,0.5644834336,0.9922256621,1.3981251363,10.1859008613
1520521189903872152,-0.2209917339,0.2417016520,0.5747163138,0.9561486307,1.4005262270,10.1792768106
1520521189908887152,-0.2169697805,0.2367234668,0.5844107060,0.9886179590,1.4269047875,10.1150171311
1520521189913904152,-0.2164724755,0.2279602750,0.5924594569,1.0018462038,1.4005226679,10.0056725693
1520521189918919152,-0.2164776818,0.2186112035,0.6015868786,1.0186821518,1.3513565993,9.9950973458
1520521189923936152,-0.2132104599,0.2133427952,0.6107393561,1.0018462038,1.3033922936,9.9023364738
1520521189928951152,-0.2059199046,0.2101163824,0.6196293818,1.0066564747,1.2961970764,9.8046765775
1520521189933966152,-0.2064210635,0.2063063337,0.6277177920,0.9970359330,1.2494313492,9.7304386091
1520521189938983152,-0.2059137771,0.2027785938,0.6393236550,1.0271001258,1.1966668291,9.6465230689
1520521189944000152,-0.2018801643,0.2065426728,0.6488141939,1.0114667455,1.1487024297,9.6292898489
1520521189949016152,-0.1978439524,0.2135178091,0.6561648196,0.9874153913,1.0983404051,9.5958708876
1520521189954030152,-0.1983216162,0.2274844019,0.6635772003,0.8755765940,1.0359938135,9.5888852558
1520521189959046152,-0.1927662577,0.2437888044,0.6693728890,0.8274738854,1.0204087344,9.5486936211
1520521189964063152,-0.1899641778,0.2717635305,0.6693106253,0.7565223904,1.0467953496,9.5749256609
1520521189969077152,-0.1846441816,0.3035279684,0.6690020487,0.7144325204,1.0923659638,9.6740731391
1520521189974094152,-0.1843455869,0.3384949385,0.6689978063,0.6338604837,1.1511301198,9.7398801417
1520521189979111152,-0.1807857292,0.3728964450,0.6630310406,0.6206322388,1.1931010649,9.8387502066
1520521189984125152,-0.1739510715,0.4116634435,0.6595264669,0.6783554890,1.3801624752,10.0506782906
1520521189989141152,-0.1779225418,0.4448658641,0.6649277382,0.6398733222,1.4892872509,10.2124844521
1520521189994158152,-0.1869307738,0.4678576592,0.6740481785,0.5785423689,1.4437246914,10.1817479581
1520521189999173152,-0.1853852037,0.4899779789,0.6836834390,0.4811343841,1.5132824225,10.2279518603
1520521190004190152,-0.1921505368,0.4975199958,0.6953873143,0.5039831707,1.6259998427,10.4286704504
1520521190009206152,-0.1994347530,0.4904809345,0.7113097031,0.3993597796,1.6439950975,10.4912648798
1520521190014221152,-0.2042187418,0.4732407571,0.7285023461,0.2646721958,1.6679883959,10.4332831176
1520521190019237152,-0.2135447550,0.4455235332,0.7402124412,0.1828975913,1.6739904669,10.4526675180
1520521190024253152,-0.2175995224,0.4125598132,0.7532254491,0.1251743411,1.6464147328,10.3800411864
1520521190029269152,-0.2226699095,0.3728982258,0.7645659174,0.0109304084,1.5768734859,10.2812766084
1520521190034283152,-0.2254843662,0.3306223481,0.7731767186,-0.0985032535,1.5528992005,10.1998529346
1520521190039300152,-0.2265496694,0.2828188664,0.7787660092,-0.2019240768,1.4977467958,10.1346711537
1520521190044316152,-0.2233435001,0.2376533593,0.7792270013,-0.3318013898,1.4042239581,10.0511899996
1520521190049332152,-0.2173718950,0.1951194087,0.7767268623,-0.4268042392,1.3514691786,9.9917346643
1520521190054349152,-0.2093847007,0.1590083602,0.7699431631,-0.4845274894,1.2855209510,9.9144971758
1520521190059363152,-0.1971213334,0.1263977851,0.7623665689,-0.5061737082,1.2171716327,9.8241272907
1520521190064380152,-0.1770621512,0.1007966025,0.7499590342,-0.5626943907,1.1296387838,9.7306291298
1520521190069395152,-0.1549810562,0.0818900390,0.7405749015,-0.5747200679,1.0492973120,9.6971223514
1520521190074411152,-0.1288874833,0.0612564112,0.7238652236,-0.6216202087,0.9953396457,9.6697400140
1520521190079428152,-0.0917332884,0.0423717805,0.7085010779,-0.6793434589,0.9209974352,9.6204021657
1520521190084442152,-0.0520634159,0.0275769874,0.6896462914,-0.6997871100,0.8742325509,9.5869445812
1520521190089459152,-0.0045967208,0.0189101488,0.6686593542,-0.7851694176,0.8550529540,9.5726864782
1520521190094475152,0.0431223787,0.0131667236,0.6441770844,-0.8152336104,0.8562544359,9.6578144440
1520521190099491152,0.0936148333,0.0158825455,0.6167781453,-0.8428926678,0.8490617475,9.7731429278
1520521190104506152,0.1483838098,0.0212195881,0.5904734633,-0.8958056472,0.8778452387,9.8119806366
1520521190109522152,0.1915919816,0.0247994240,0.5658001874,-0.9102364598,0.9234136987,9.9375882094
1520521190114539152,0.2373182030,0.0327539261,0.5400734069,-0.9150467306,0.9509943031,10.0340660831
1520521190119554152,0.2815265520,0.0316676328,0.5169859701,-0.8861851055,0.9521911957,10.1221069329
1520521190124571152,0.3207078188,0.0276560555,0.4974027336,-0.8693491575,0.9641812887,10.1440121038
1520521190129587152,0.3523464709,0.0216047466,0.4767357536,-0.8621337513,0.9425961991,10.1462872095
1520521190134601152,0.3792109235,0.0137937903,0.4595813995,-0.8573234804,0.9114181734,10.1462707921
1520521190139618152,0.3985301150,-0.0004385921,0.4453681440,-0.8825774024,0.8274803107,10.1756520509
1520521190144634152,0.4092959099,-0.0204976419,0.4295030201,-0.8982107826,0.6859829583,10.0934299779
1520521190149649152,0.4165411885,-0.0425992186,0.4141699604,-0.8777671315,0.5780587280,9.9864189887
1520521190154665152,0.4182598648,-0.0661729957,0.4037058794,-0.8621337513,0.4953168212,9.8701331120
1520521190159681152,0.4147003012,-0.0891602439,0.3910916786,-0.8008027979,0.4137704957,9.8812371087
1520521190164697152,0.4081336394,-0.1072009641,0.3806852381,-0.7815617145,0.3418205717,9.7974456234
1520521190169713152,0.3955364644,-0.1252462325,0.3711016366,-0.7454846831,0.3190340939,9.8168731364
1520521190174730152,0.3786700633,-0.1433026442,0.3650430660,-0.7394718445,0.3322241703,9.8016938770
1520521190179745152,0.3572854778,-0.1564021922,0.3571368677,-0.6853562974,0.3574019045,9.8185747526
1520521190184760152,0.3308825253,-0.1645530860,0.3503599798,-0.6961794069,0.4017709431,9.7698267865
1520521190189777152,0.2969354995,-0.1782512522,0.3465308599,-0.5999739898,0.3849754843,9.7944739198
1520521190194793152,0.2627417501,-0.1887450156,0.3429972066,-0.5783277710,0.3981643431,9.7373053122
1520521190199809152,0.2285537166,-0.1963307611,0.3416501512,-0.6432664275,0.4413384560,9.7344088572
1520521190204824152,0.1888340353,-0.2039084746,0.3365257213,-0.7045973809,0.4497372156,9.7245383341
1520521190209841152,0.1460947693,-0.2126448949,0.3284219948,-0.7490923862,0.4233595917,9.6854842522
1520521190214856152,0.1041120460,-0.2169993255,0.3162920260,-0.8188413136,0.3849925305,9.6455255260
1520521190219871152,0.0626285802,-0.2225132698,0.3019878642,-0.7731437405,0.4005777969,9.6520383961
1520521190224887152,0.0226616617,-0.2219090052,0.2882686787,-0.7647257665,0.4233608093,9.5752327423
1520521190229904152,-0.0218308783,-0.2224698656,0.2737373642,-0.7190281934,0.4785177097,9.5991391836
1520521190234919152,-0.0645577362,-0.2215884112,0.2648953618,-0.6324433181,0.5084894768,9.6203479212
1520521190239935152,-0.1035140140,-0.2207091222,0.2573990881,-0.5530738490,0.5492540696,9.5451584169
1520521190244951152,-0.1447291704,-0.2195473475,0.2528852428,-0.4773120831,0.5792266796,9.5083653023
1520521190249967152,-0.1844254507,-0.2116896938,0.2508546412,-0.4628812706,0.6235937514,9.5198030156
1520521190254984152,-0.2216076020,-0.2041275390,0.2507109706,-0.4532607288,0.6104024574,9.4953172148
1520521190259999152,-0.2570261725,-0.1927745110,0.2497812953,-0.4256016715,0.5672312480,9.4811443673
1520521190265014152,-0.2886682235,-0.1770528803,0.2502306950,-0.4592735674,0.4988828663,9.4489987305
1520521190270031152,-0.3152792327,-0.1554921204,0.2471981252,-0.5169968176,0.4629131493,9.4519199413
1520521190275046152,-0.3426450597,-0.1336359008,0.2425459033,-0.4941480311,0.4689070719,9.4400702590
1520521190280063152,-0.3647289891,-0.1074024751,0.2362939511,-0.5133891145,0.4581163066,9.4356194881
1520521190285077152,-0.3853002485,-0.0800138470,0.2341062794,-0.5266173593,0.4545199156,9.4985075253
1520521190290094152,-0.4023562254,-0.0537850080,0.2302799058,-0.5206045208,0.5024850643,9.5239693934
1520521190295111152,-0.4176470849,-0.0237703948,0.2275613489,-0.5242122239,0.5300655750,9.4844647193
1520521190300126152,-0.4301785891,0.0009930957,0.2275031014,-0.4821223540,0.5624390883,9.4875099021
1520521190305142152,-0.4371782613,0.0289676242,0.2261063105,-0.5266173593,0.6379884004,9.5773544052
1520521190310158152,-0.4454389125,0.0546149547,0.2230707931,-0.5290224948,0.7159327153,9.6261118544
1520521190315173152,-0.4514422298,0.0770579415,0.2200066213,-0.5410481719,0.7495095837,9.6424661788
1520521190320190152,-0.4546835025,0.0983386586,0.2161167854,-0.4881351925,0.7878779562,9.6849130638
1520521190325206152,-0.4546569691,0.1193249004,0.2138419345,-0.4821223540,0.8022671730,9.6685704911
1520521190330222152,-0.4566430767,0.1362200448,0.2155978826,-0.4809197862,0.8322455899,9.7115288788
1520521190335236152,-0.4498370223,0.1516660830,0.2157031046,-0.4676915414,0.8118591725,9.6905014108
1520521190340253152,-0.4450474784,0.1609849742,0.2184708346,-0.4953505988,0.7662939906,9.7698408509
1520521190345269152,-0.4390038631,0.1673854134,0.2231078213,-0.5314276302,0.7531062557,9.7771777290
1520521190350284152,-0.4291976222,0.1711757952,0.2236596110,-0.5446558750,0.7219296350,9.7703640237
1520521190355300152,-0.4204064717,0.1691446485,0.2217338928,-0.5675046616,0.6943511848,9.8019912014
1520521190360317152,-0.4096117090,0.1609901153,0.2216515773,-0.5626943907,0.6559783166,9.8356839747
1520521190365332152,-0.3958094952,0.1484732800,0.2188248559,-0.5819354741,0.6080141982,9.9021602345
1520521190370348152,-0.3810038424,0.1359626660,0.2138319005,-0.5843406096,0.5876289983,9.9126628190
1520521190375364152,-0.3656992418,0.1214154709,0.2077402664,-0.6071893961,0.5504574247,9.9547586470
1520521190380380152,-0.3473812076,0.1065839002,0.1994764414,-0.6240253441,0.5312724892,9.9956162656
1520521190385395152,-0.3310757242,0.0885390277,0.1938973551,-0.6348484535,0.5264767704,10.0398877587
1520521190390412152,-0.3142735316,0.0687576999,0.1839752626,-0.6913691360,0.4977018023,10.0602224077
1520521190395427152,-0.2949543008,0.0527689976,0.1727246735,-0.7238384643,0.4377473099,10.0512997596
1520521190400443152,-0.2781498971,0.0388342996,0.1558128494,-0.7863719853,0.4029771080,10.0751852124
1520521190405459152,-0.2585881100,0.0211185131,0.1367026241,-0.8356772616,0.3658075949,10.1140521197
1520521190410475152,-0.2385206909,0.0051490454,0.1184164415,-0.8260567199,0.3166420883,10.1221414299
1520521190415490152,-0.2199637463,-0.0119829089,0.0987714374,-0.8008027979,0.3238349640,10.1323479032
1520521190420507152,-0.2026622413,-0.0288261563,0.0799426278,-0.8356772616,0.3370282248,10.1931059728
1520521190425523152,-0.1881311392,-0.0503333676,0.0613539286,-0.8368798293,0.3202403525,10.2221876474
1520521190430539152,-0.1720924638,-0.0718392597,0.0424918832,-0.8741594284,0.3538191878,10.2690035208
1520521190435553152,-0.1585598727,-0.0895639650,0.0258277722,-0.9378955172,0.3909975049,10.2788847910
1520521190440571152,-0.1485493308,-0.1078626197,0.0053781067,-0.9799853871,0.3945982043,10.3362360137
1520521190445586152,-0.1412978383,-0.1214965628,-0.0163835849,-0.9920110643,0.4293742132,10.3642106083
1520521190450602152,-0.1315238545,-0.1281362926,-0.0380965897,-1.0713805333,0.4413717989,10.4137814947
1520521190455618152,-0.1237587676,-0.1344890678,-0.0584509082,-1.0954318876,0.4833435870,10.4860275941
1520521190460632152,-0.1185047244,-0.1361661064,-0.0841759081,-1.0966344553,0.5049282082,10.5255311455
1520521190465649152,-0.1127492244,-0.1375464646,-0.1117934395,-1.1062549970,0.5049289575,10.5430569453
1520521190470665152,-0.1112572777,-0.1357371070,-0.1342382107,-1.0954318876,0.5696816974,10.6300492520
1520521190475681152,-0.1102630477,-0.1313098560,-0.1550387653,-1.1074575647,0.5912671617,10.6650095731
1520521190480697152,-0.1085133804,-0.1254239302,-0.1763706964,-1.0641651270,0.6128483175,10.7238364846
1520521190485712152,-0.1097793893,-0.1204169817,-0.1963509666,-1.0196701216,0.6512173457,10.7721760248
1520521190490729152,-0.1140587888,-0.1154184989,-0.2136201772,-0.9823905225,0.6644049869,10.7497195702
1520521190495746152,-0.1158204092,-0.1086787371,-0.2279047117,-0.9451109234,0.6859866110,10.7993078553
1520521190500761152,-0.1213489246,-0.1031198304,-0.2370507656,-0.8501080741,0.7051654587,10.8343909090
1520521190505776152,-0.1253623511,-0.0949502556,-0.2415803319,-0.8008027979,0.7159538824,10.8373869095
1520521190510793152,-0.1276135221,-0.0859123939,-0.2436715829,-0.7514975217,0.7027594977,10.8764327594
1520521190515808152,-0.1331270458,-0.0733784694,-0.2460006354,-0.7527000894,0.6859716254,10.9055144340
1520521190520824152,-0.1366301829,-0.0623072357,-0.2459096240,-0.7214333288,0.6859691903,10.9133451103
1520521190525840152,-0.1386234530,-0.0474372144,-0.2495801554,-0.7166230580,0.6943627986,10.9156143926
1520521190530857152,-0.1398580830,-0.0319972405,-0.2483778147,-0.6949768392,0.7363310275,10.8979306154
1520521190535871152,-0.1393346366,-0.0186020965,-0.2450299355,-0.6156073701,0.7171385992,10.9308789657
1520521190540888152,-0.1413304668,-0.0086994524,-0.2435978873,-0.5867457450,0.7207337726,10.9480266957
1520521190545904152,-0.1405658873,-0.0037587318,-0.2386916689,-0.5290224948,0.7686948939,10.9799581101
1520521190550920152,-0.1385507529,-0.0031882869,-0.2338211304,-0.4195888329,0.8454313579,11.0125202869
1520521190555935152,-0.1350249755,-0.0040901993,-0.2230124979,-0.3630681504,0.8538209389,10.9875569409
1520521190560952152,-0.1322655419,-0.0128539619,-0.2144268558,-0.3089526033,0.8706046901,10.9684195393
1520521190565966152,-0.1257376413,-0.0236617668,-0.2036994089,-0.2548370562,0.9053755477,10.9306702944
1520521190570984152,-0.1177096474,-0.0402974000,-0.1927486782,-0.3101551710,0.8789987667,10.8812622624
1520521190575998152,-0.1076709962,-0.0557623368,-0.1834160643,-0.3666758535,0.8286392710,10.8458350498
1520521190581015152,-0.0941174977,-0.0709221274,-0.1786870416,-0.4448427549,0.7483029505,10.8362149286
1520521190586030152,-0.0785578230,-0.0857744487,-0.1796409935,-0.5278199271,0.6427850558,10.7267218037
1520521190591047152,-0.0609900864,-0.1012036525,-0.1824969466,-0.6192150732,0.5516575018,10.6556473326
1520521190596063152,-0.0424206200,-0.1154501704,-0.1915684299,-0.6516844015,0.3753863883,10.5445694424
1520521190601079152,-0.0233499085,-0.1264723224,-0.2076505860,-0.7202307611,0.2890536165,10.3640263661
1520521190606094152,-0.0007617583,-0.1369052279,-0.2256286513,-0.7791565791,0.1187802657,10.2450651328
1520521190611109152,0.0220767302,-0.1452859599,-0.2481909019,-0.9066287566,-0.1222370315,10.0722193128
1520521190616124152,0.0469161182,-0.1562686975,-0.2780816333,-0.9090338921,-0.2865190822,9.8771627381
1520521190621142152,0.0710162562,-0.1579339814,-0.3054649127,-0.8934005118,-0.3920446570,9.7690340865
1520521190626158152,0.0905823362,-0.1630779841,-0.3401712074,-0.8669440221,-0.5515323938,9.5980969361
1520521190631174152,0.1094041051,-0.1632782149,-0.3713212127,-0.8404875324,-0.7014270073,9.4410961585
1520521190636188152,0.1234521215,-0.1623125930,-0.4032650957,-0.8332721261,-0.7457957649,9.3353140938
1520521190641205152,0.1364995608,-0.1584357049,-0.4343732432,-0.8465003710,-0.8345311260,9.2274499928
1520521190646220152,0.1452766371,-0.1528099980,-0.4662717556,-0.8946030795,-0.9016792433,9.2163622385
1520521190651237152,0.1528040761,-0.1445732492,-0.4940897382,-0.8753619961,-0.9064773035,9.2301253624
1520521190656253152,0.1542956348,-0.1401283190,-0.5213843278,-0.8849825378,-0.8812946054,9.2487887500
1520521190661269152,0.1530286693,-0.1316058169,-0.5483721143,-0.9102364598,-0.8884874811,9.2199879734
1520521190666283152,0.1487501089,-0.1248539279,-0.5675218076,-0.9619468714,-0.8884834537,9.2111941392
1520521190671301152,0.1422041743,-0.1256942198,-0.5810436369,-0.9992264705,-0.8501080567,9.1952495617
1520521190676317152,0.1361605709,-0.1277042234,-0.5929520165,-1.0124547154,-0.8153319541,9.1535072241
1520521190681333152,0.1306259318,-0.1297351547,-0.5970154986,-0.9595417360,-0.7889549859,9.1390207488
1520521190686348152,0.1278648986,-0.1279908443,-0.5959148426,-0.9956187674,-0.7697659293,9.1753796536
1520521190691365152,0.1205779774,-0.1285815675,-0.5940119325,-1.0906216167,-0.7325851770,9.2181052859
1520521190696380152,0.1180655928,-0.1326823315,-0.5864631034,-1.0064418768,-0.6978166609,9.2044684376
1520521190701395152,0.1198264684,-0.1388342253,-0.5740679440,-0.9475160589,-0.6402625100,9.1840823143
1520521190706412152,0.1168132699,-0.1490877691,-0.5541197550,-0.9390980849,-0.6174794975,9.3350568755
1520521190711427152,0.1203392471,-0.1573078025,-0.5309215885,-0.8597286158,-0.5611260792,9.4097687399
1520521190716443152,0.1238735749,-0.1626285593,-0.5022902732,-0.7815617145,-0.5119674097,9.4810128935
1520521190721460152,0.1301754397,-0.1676663182,-0.4701447721,-0.8020053656,-0.4316234091,9.5322678677
1520521190726475152,0.1382362239,-0.1715320223,-0.4401580129,-0.7659283342,-0.3440889680,9.6550186134
1520521190731491152,0.1458006557,-0.1716135667,-0.4087886907,-0.7094076517,-0.2721449446,9.7555048394
1520521190736506152,0.1526158993,-0.1679059507,-0.3779301600,-0.6757357557,-0.1774154737,9.8689748275
1520521190741523152,0.1559029741,-0.1708986434,-0.3481984097,-0.6083919638,-0.1078705741,9.8589543711
