#timestamp [ns],w_RS_S_x [rad s^-1],w_RS_S_y [rad s^-1],w_RS_S_z [rad s^-1],a_RS_S_x [m s^-2],a_RS_S_y [m s^-2],a_RS_S_z [m s^-2]
1520503193094430810,0.0249432724,0.0019399919,-0.0587685214,0.5184139832,0.4100703295,9.7998336765
1520503193099447810,0.0138977793,0.0092144456,-0.0565280412,0.5292370926,0.4556368226,9.8124674796
1520503193104463810,0.0041032369,0.0124100082,-0.0543210179,0.5412627698,0.4244582350,9.8030836802
1520503193109478810,-0.0036772650,0.0176431364,-0.0510199832,0.5605038532,0.4124653322,9.8122052444
1520503193114495810,-0.0114582491,0.0231705628,-0.0487989090,0.5701243949,0.4592310594,9.8004445601
1520503193119511810,-0.0159687455,0.0295654101,-0.0436012281,0.5821500720,0.4316498931,9.7782736692
1520503193124527810,-0.0177184284,0.0342166753,-0.0397747491,0.5653141240,0.4448417490,9.7400739268
1520503193129543810,-0.0194678485,0.0385743707,-0.0351388555,0.5304396603,0.4664289928,9.7520137649
1520503193134559810,-0.0204639877,0.0426417053,-0.0307771311,0.5316422281,0.4376495289,9.7299493888
1520503193139575810,-0.0189473973,0.0484670729,-0.0296532862,0.5857577751,0.4388444547,9.6864221656
1520503193144590810,-0.0166736173,0.0542818093,-0.0244726529,0.6134168325,0.4388423005,9.6629100703
1520503193149607810,-0.0149012471,0.0609705025,-0.0192844170,0.5689218272,0.4064689745,9.6982390481
1520503193154623810,-0.0116214367,0.0670755604,-0.0135623358,0.5605038532,0.3980756471,9.6413841152
1520503193159638810,-0.0068337472,0.0725955263,-0.0067653175,0.5196165509,0.4160659379,9.6847638733
1520503193164654810,-0.0060748874,0.0731647505,-0.0016218995,0.4787292487,0.3992811564,9.6758810643
1520503193169671810,-0.0028070853,0.0714067968,0.0024168830,0.5196165509,0.3633037593,9.6731938847
1520503193174687810,-0.0007994743,0.0664409357,0.0072451829,0.5003754675,0.3573095557,9.6966298914
1520503193179703810,0.0022100350,0.0600229164,0.0104372251,0.4462599204,0.3633094725,9.7145829315
1520503193184719810,0.0049671478,0.0536084408,0.0122770045,0.3644853160,0.3657141223,9.7525651432
1520503193189735810,0.0034498988,0.0477852586,0.0103415219,0.3404339617,0.3249452211,9.7818926007
1520503193194750810,0.0036868606,0.0393446753,0.0067594890,0.3969546442,0.3117502744,9.7581124467
1520503193199767810,0.0039274724,0.0329408701,0.0042752014,0.4161957276,0.3045539333,9.7974450763
1520503193204783810,0.0029151929,0.0274027134,0.0047759214,0.4113854568,0.2997577462,9.7858751343
1520503193209798810,0.0026556730,0.0236248141,0.0009598455,0.3704981545,0.2721807009,9.7688678417
1520503193214816810,0.0044116873,0.0221722228,-0.0004072665,0.3596750451,0.2697832630,9.7596783743
1520503193219831810,0.0069234916,0.0227625323,-0.0028424006,0.3452442326,0.2865723529,9.7598024642
1520503193224847810,0.0086839085,0.0256858079,-0.0060699875,0.3332185554,0.2757810257,9.7552814630
1520503193229863810,0.0104458152,0.0274333474,-0.0055188243,0.3079646335,0.3129563457,9.7368967164
1520503193234879810,0.0134654980,0.0323968070,-0.0087331833,0.2839132792,0.2817805679,9.7150804852
1520503193239895810,0.0177350298,0.0318215392,-0.0109099309,0.2502413832,0.3057659988,9.7153848400
1520503193244911810,0.0230132344,0.0344548086,-0.0141462751,0.2526465187,0.3045666711,9.6921197202
1520503193249928810,0.0267902872,0.0411632286,-0.0159959662,0.2165694873,0.2889806553,9.7064318007
1520503193254944810,0.0333249859,0.0437969904,-0.0192346440,0.1961258361,0.2769908433,9.7078046240
1520503193259958810,0.0378498663,0.0470134620,-0.0227356878,0.2129617841,0.2817860938,9.7366896748
1520503193264975810,0.0393593333,0.0490573866,-0.0240756560,0.2045438101,0.2338211325,9.7344940958
1520503193269992810,0.0413746990,0.0540175386,-0.0262059645,0.1949232684,0.2194321967,9.7636553672
1520503193275008810,0.0403701270,0.0572347579,-0.0307789239,0.1612513725,0.2194348191,9.7721181164
1520503193280023810,0.0363470602,0.0563626712,-0.0321308550,0.1444154245,0.2410206580,9.8280438489
1520503193285039810,0.0345811508,0.0519941278,-0.0332431178,0.1083383931,0.2674045571,9.9352865189
1520503193290055810,0.0320521515,0.0415091278,-0.0354828489,0.1035281222,0.2494178254,10.0097280923
1520503193295071810,0.0252462775,0.0278186810,-0.0382801913,0.1119460962,0.2302309230,10.0259348817
1520503193300088810,0.0212078975,0.0147040735,-0.0381022167,0.1540359662,0.2781932619,10.0556941740
1520503193305103810,0.0154065562,-0.0004472726,-0.0392892660,0.1720744819,0.2985772442,10.1077951973
1520503193310118810,0.0070866401,-0.0193861454,-0.0410416401,0.1780873205,0.3057716184,10.1100539439
1520503193315135810,0.0040514677,-0.0368842387,-0.0360290525,0.1432128568,0.3057743345,10.1220148301
1520503193320152810,0.0017651777,-0.0575850811,-0.0318539567,0.1672642110,0.3525389378,10.1693830268
1520503193325168810,-0.0022838541,-0.0803233907,-0.0287733391,0.1828975913,0.3093686650,10.1065171838
1520503193330184810,-0.0053177093,-0.0978258546,-0.0221374761,0.1901129976,0.2997749797,10.0750784214
1520503193335199810,-0.0070893974,-0.1121269669,-0.0138562174,0.1516308308,0.3009771172,9.9964260250
1520503193340214810,-0.0040867998,-0.1252541147,-0.0080098473,0.0686536586,0.3453517754,9.9204889074
1520503193345231810,-0.0000853344,-0.1401160640,-0.0070485086,0.0169432469,0.3861265772,9.8965474442
1520503193350247810,0.0086985554,-0.1479770866,-0.0082070508,0.0650459554,0.3801271287,9.8426264668
1520503193355263810,0.0205059936,-0.1503020785,-0.0087878633,0.1107435285,0.3729287271,9.7864057808
1520503193360278810,0.0328183621,-0.1505857250,-0.0098951394,0.1287820442,0.4112998157,9.6781133984
1520503193365296810,0.0458935970,-0.1462156649,-0.0077216955,0.1504282631,0.4112981298,9.6418762448
1520503193370311810,0.0599868705,-0.1336922716,-0.0033235050,0.1768847527,0.3885124013,9.6079387763
1520503193375327810,0.0748351029,-0.1179524267,-0.0029604492,0.1937207007,0.3657274220,9.5926892516
1520503193380343810,0.0866729399,-0.0987186057,-0.0020240239,0.2261900290,0.3477377868,9.5784450277
1520503193385359810,0.0939863475,-0.0783122777,-0.0043168559,0.2382157061,0.3261523226,9.4969989484
1520503193390375810,0.1010554893,-0.0550024010,-0.0027993479,0.2682798989,0.3297474024,9.4908920942
1520503193395391810,0.1071237483,-0.0281948468,-0.0017943877,0.2201771904,0.3753184849,9.5296666121
1520503193400408810,0.1061555108,-0.0005115252,-0.0023929654,0.2069489456,0.4124928682,9.5158133908
1520503193405423810,0.1044268218,0.0225100769,-0.0032962582,0.2346080030,0.4088932928,9.5120612506
1520503193410439810,0.1009417657,0.0464000445,-0.0022957934,0.2454311124,0.4160872924,9.5921368219
1520503193415455810,0.0974569252,0.0688258051,0.0013990150,0.2538490864,0.4484634282,9.6071311858
1520503193420471810,0.0929698767,0.0918266567,0.0078055953,0.2153669196,0.5108217273,9.6027963661
1520503193425488810,0.0852063973,0.1081258410,0.0136260203,0.2201771904,0.5503929867,9.6445481400
1520503193430503810,0.0804514196,0.1188884440,0.0199396978,0.2382157061,0.5875649349,9.7384699750
1520503193435519810,0.0714220252,0.1261447461,0.0292106375,0.2658747635,0.5947576233,9.7788687810
1520503193440535810,0.0626431338,0.1313548991,0.0409004618,0.2658747635,0.6091473083,9.7776926050
1520503193445551810,0.0551147501,0.1310241394,0.0544395353,0.2622670604,0.6762994530,9.8729580414
1520503193450568810,0.0433070296,0.1263253085,0.0663299213,0.2502413832,0.6715038279,9.8905119287
1520503193455583810,0.0304871629,0.1166732754,0.0779138359,0.2370131384,0.6679074369,9.9162113593
1520503193460599810,0.0214377430,0.1064341225,0.0916506706,0.2189746227,0.7326624247,9.9639716929
1520503193465616810,0.0088626201,0.0921207638,0.1029280033,0.2346080030,0.6966869944,9.9836110546
1520503193470632810,-0.0032131629,0.0745987301,0.1155326780,0.2658747635,0.6727017508,9.9821679660
1520503193475648810,-0.0122719055,0.0591219400,0.1265240382,0.2526465187,0.6259363045,9.9974501972
1520503193480664810,-0.0235928629,0.0442314036,0.1359007698,0.2153669196,0.6043546804,10.0722113151
1520503193485680810,-0.0288841421,0.0290554876,0.1439113474,0.1816950236,0.5971624603,10.1015996716
1520503193490695810,-0.0334237633,0.0141799928,0.1486761972,0.1853027267,0.5623871070,10.0876527398
1520503193495711810,-0.0382130564,0.0001770962,0.1539892747,0.1660616433,0.5216178312,10.0565018915
1520503193500728810,-0.0440116769,-0.0155686739,0.1571265135,0.1215666379,0.5084307520,10.0534614095
1520503193505744810,-0.0432771394,-0.0301390618,0.1575550509,0.1275794765,0.4760534922,10.0267051454
1520503193510759810,-0.0397744415,-0.0412088386,0.1569229477,0.0794767680,0.4472778685,9.9144734482
1520503193515776810,-0.0392760190,-0.0426582800,0.1542054399,0.0409946012,0.4364886018,9.8730213517
1520503193520791810,-0.0365255317,-0.0472945828,0.1449661761,0.0854896066,0.4316885747,9.8795658057
1520503193525808810,-0.0342752310,-0.0534025737,0.1411276483,0.0866921743,0.3861211449,9.9377057333
1520503193530825810,-0.0355476068,-0.0647656057,0.1405021898,0.1636565079,0.3309546912,9.8568224664
1520503193535839810,-0.0325421394,-0.0720483090,0.1401704661,0.1768847527,0.2877846057,9.8625465268
1520503193540855810,-0.0307901318,-0.0775853827,0.1406660522,0.1997335393,0.2482111922,9.8391198398
1520503193545872810,-0.0315497403,-0.0790302173,0.1360570567,0.1528333985,0.2134397727,9.8059080732
1520503193550888810,-0.0302956180,-0.0793145537,0.1336175869,0.1396051536,0.1870597136,9.7746846675
1520503193555904810,-0.0292977186,-0.0819242373,0.1289964320,0.1275794765,0.1654761226,9.7748227662
1520503193560919810,-0.0280445999,-0.0798636573,0.1214343749,0.0686536586,0.1738746949,9.7881717121
1520503193565936810,-0.0282983019,-0.0754653074,0.1111874439,0.1119460962,0.1342996891,9.8296261006
1520503193570952810,-0.0285486166,-0.0687366098,0.1012288434,0.1468205599,0.0755390923,9.7875067692
1520503193575968810,-0.0293021054,-0.0640550851,0.0939610738,0.1828975913,0.0635448782,9.7650865758
1520503193580984810,-0.0292996237,-0.0555750681,0.0829331615,0.1828975913,0.0683414399,9.7650818984
1520503193586000810,-0.0313026478,-0.0430142701,0.0711284685,0.1480231276,0.0539544710,9.7665975211
1520503193591015810,-0.0307934716,-0.0295717781,0.0568908645,0.1600488048,0.0131827600,9.6933051590
1520503193596032810,-0.0322936275,-0.0143773960,0.0410470574,0.1612513725,0.0035895429,9.6619249219
1520503193601047810,-0.0353020155,0.0008178522,0.0246649589,0.1744796173,-0.0096020320,9.6443768697
1520503193606064810,-0.0393197349,0.0128067484,0.0085308192,0.1997335393,0.0083831075,9.6173842124
1520503193611079810,-0.0410720717,0.0265404673,-0.0059709071,0.2310002998,0.0347617617,9.5914869885
1520503193616097810,-0.0418208402,0.0394018833,-0.0210222613,0.2586593572,0.0167725011,9.5912353123
1520503193621112810,-0.0440782838,0.0508021437,-0.0347292012,0.2478362478,0.0911200503,9.6214839016
1520503193626129810,-0.0435738670,0.0578210644,-0.0441458869,0.3055594980,0.0875181334,9.6290605746
1520503193631144810,-0.0415660129,0.0616353460,-0.0535898270,0.3332185554,0.0491434856,9.6358016409
1520503193636160810,-0.0385531437,0.0636944299,-0.0603435134,0.2995466595,0.0887177421,9.7186030150
1520503193641175810,-0.0385606121,0.0622557180,-0.0671182763,0.3320159877,0.1198928643,9.6845544010
1520503193646191810,-0.0345484008,0.0593587451,-0.0728294385,0.3572699097,0.1007046507,9.7180294789
1520503193651209810,-0.0317902217,0.0576239043,-0.0774471912,0.2923312532,0.1043071296,9.7511980746
1520503193656224810,-0.0280300620,0.0523877439,-0.0801996666,0.3055594980,0.1414794524,9.7742759486
1520503193661239810,-0.0227670334,0.0448269256,-0.0851370941,0.3488519357,0.1690563104,9.7215311938
1520503193666256810,-0.0195080639,0.0404639935,-0.0876114208,0.3692955868,0.1438727693,9.7225189079
1520503193671272810,-0.0097078486,0.0404692901,-0.0881707148,0.3813212639,0.1570623774,9.6514982134
1520503193676288810,-0.0011619713,0.0422231300,-0.0889848826,0.3668904514,0.1954359948,9.6457905355
1520503193681304810,0.0086416312,0.0445587744,-0.0892558460,0.3163826074,0.2338124221,9.6322990015
1520503193686320810,0.0222151160,0.0486507587,-0.0919553848,0.2839132792,0.2613951807,9.6779117575
1520503193691335810,0.0355398581,0.0562465432,-0.0973332389,0.1720744819,0.2745944357,9.6778253210
1520503193696351810,0.0425821256,0.0623763878,-0.1002756272,0.1540359662,0.3153666150,9.7523383524
1520503193701369810,0.0508716977,0.0638540418,-0.1067730151,0.1359974505,0.3225628624,9.8117762539
1520503193706385810,0.0609155200,0.0609579749,-0.1119542869,0.1865052944,0.3393468946,9.8531054531
1520503193711399810,0.0639273306,0.0612643811,-0.1170980366,0.2189746227,0.3345478041,9.9097391477
1520503193716416810,0.0679496134,0.0644806558,-0.1205981468,0.2153669196,0.2973747320,9.9295669596
1520503193721432810,0.0644341192,0.0685681304,-0.1240775862,0.2959389563,0.2853770525,9.9206594066
1520503193726448810,0.0576521754,0.0711893897,-0.1245860687,0.3464468003,0.2565937486,9.9515737451
1520503193731463810,0.0579174231,0.0822657424,-0.1258547876,0.2682798989,0.3081628747,9.9278792691
1520503193736480810,0.0445893486,0.0764372043,-0.1274977884,0.2598619249,0.2949729857,9.9558655222
1520503193741495810,0.0352822790,0.0720729915,-0.1313015084,0.2983440917,0.2470043717,9.9439162944
1520503193746512810,0.0219544751,0.0688778407,-0.1369826898,0.3753084254,0.2589897816,9.9106154467
1520503193751527810,0.0091329971,0.0642070248,-0.1356417268,0.3620801805,0.2062286333,10.0037671696
1520503193756544810,-0.0062102195,0.0548810848,-0.1373076708,0.2995466595,0.2002378015,10.0206516945
1520503193761559810,-0.0215587992,0.0432313528,-0.1416968585,0.3260031491,0.1114993496,9.9902649716
1520503193766575810,-0.0371561256,0.0336219425,-0.1463405637,0.3127749043,0.0611364821,10.0160100065
1520503193771592810,-0.0504974785,0.0211054004,-0.1531750674,0.3151800397,-0.0000198668,9.9858304898
1520503193776609810,-0.0638386980,0.0091738127,-0.1608167626,0.2418234092,-0.0251961024,9.9470561600
1520503193781624810,-0.0756773074,-0.0033253847,-0.1738766223,0.2730901698,-0.0527787673,9.9363194277
1520503193786639810,-0.0832349098,-0.0108766557,-0.1842011649,0.2586593572,-0.0827561540,9.8574633330
1520503193791655810,-0.0875179318,-0.0140617063,-0.1923340614,0.2610644926,-0.0731632179,9.7470268925
1520503193796672810,-0.0922976080,-0.0114127074,-0.2028564758,0.3115723366,-0.1007473814,9.6419692191
1520503193801689810,-0.0925468250,-0.0046876519,-0.2114623468,0.3187877429,-0.0983496625,9.5628708611
1520503193806704810,-0.0862628449,0.0014564659,-0.2198142529,0.3356236908,-0.0743681653,9.5080628377
1520503193811719810,-0.0827426305,0.0055488826,-0.2241183981,0.3873341025,-0.0312031374,9.4284916352
1520503193816737810,-0.0787202105,0.0108135901,-0.2308494976,0.4173982953,-0.0192140747,9.4026201484
1520503193821753810,-0.0661533284,0.0140317554,-0.2338243847,0.4679061393,-0.0396033956,9.4079591346
1520503193826768810,-0.0581078102,0.0154852728,-0.2313932913,0.5689218272,-0.0096327525,9.4464595708
1520503193831785810,-0.0457917134,0.0137257645,-0.2254774896,0.6747477859,0.0407229033,9.4744340124
1520503193836800810,-0.0337247632,0.0122517148,-0.2173946308,0.6639246765,0.1210661546,9.4791095880
1520503193841816810,-0.0188880333,0.0122240158,-0.2049770563,0.6338604837,0.2541730831,9.5466767671
1520503193846832810,-0.0065716386,0.0069511392,-0.1928653759,0.6783554890,0.3524991324,9.5368506426
1520503193851848810,0.0090167413,0.0042969043,-0.1788459340,0.7360787393,0.4292396238,9.4908903480
1520503193856864810,0.0241053345,0.0019258443,-0.1618473306,0.8250687500,0.4664060461,9.4388535903
1520503193861880810,0.0402067756,0.0042129599,-0.1431917494,0.8839945680,0.4448169291,9.3801938929
1520503193866896810,0.0560680049,0.0146587438,-0.1244734551,0.8599432137,0.4520136449,9.4048260010
1520503193871913810,0.0694119373,0.0230689505,-0.1076598764,0.8575380783,0.4544121130,9.3711448978
1520503193876929810,0.0845254330,0.0393479571,-0.0910600874,1.0691899958,0.5815045137,9.3306101074
1520503193881945810,0.1001518487,0.0570564028,-0.0641693723,1.1786236576,0.7074057351,9.2294777866
1520503193886961810,0.1130011341,0.0666108263,-0.0395001368,1.2543854235,0.7709542770,9.2612184238
1520503193891975810,0.1243678269,0.0913013573,-0.0090310368,1.4251500388,0.8452876835,9.1293236839
1520503193896992810,0.1352294991,0.1130727471,0.0233105871,1.2856521841,0.9040564289,9.2665950154
1520503193902009810,0.1423074422,0.1272797742,0.0507315855,1.2664111007,0.8800751189,9.4457758521
1520503193907025810,0.1443518933,0.1388754831,0.0732720845,1.2195109599,0.7661604315,9.4939913386
1520503193912040810,0.1383457610,0.1431805146,0.0968541251,1.2014724442,0.7793523810,9.5964227197
1520503193917056810,0.1283194708,0.1507015839,0.1158688070,1.0980516209,0.7685681720,9.7566536003
1520503193922072810,0.1152583768,0.1471626999,0.1296642402,1.0740002666,0.7301975516,9.8626802202
1520503193927089810,0.1011868106,0.1407139474,0.1418160342,0.9777948496,0.6426677935,9.9961863972
1520503193932104810,0.0803215589,0.1301933513,0.1501616639,0.9164638962,0.4675980683,10.1061956103
1520503193937120810,0.0551728384,0.1135622043,0.1546809006,0.8563355106,0.3476887090,10.2544900793
1520503193942135810,0.0287653342,0.0945965752,0.1602668698,0.7324710361,0.2097972073,10.2581544620
1520503193947152810,-0.0006699327,0.0704015970,0.1595958686,0.6446835931,0.1090762489,10.3358086566
1520503193952169810,-0.0273421867,0.0459192310,0.1578353267,0.5244268218,0.0347389086,10.3905102832
1520503193957185810,-0.0572843127,0.0208601003,0.1533709471,0.4606907330,-0.0551916591,10.3702997604
1520503193962200810,-0.0839655366,-0.0082756769,0.1483282851,0.3825238317,-0.1079477499,10.3769227598
1520503193967217810,-0.1028576375,-0.0371119185,0.1413795565,0.0289689240,-0.3669345453,10.2504565008
1520503193972232810,-0.1164798765,-0.0632872103,0.1209137397,-0.4015503172,-0.6990629123,10.0155691634
1520503193977248810,-0.1150423764,-0.0940794118,0.0857748717,-0.4797172185,-0.8981141347,9.9142554344
1520503193982264810,-0.1075570701,-0.1111676218,0.0482943744,-0.5254147916,-0.9976392308,9.8136907577
1520503193987281810,-0.0953052640,-0.1323246033,0.0075273353,-0.4749069477,-1.0791847133,9.7156585682
1520503193992296810,-0.0772631683,-0.1497088038,-0.0267284368,-0.4580709997,-1.1331473436,9.6202515135
1520503193997312810,-0.0526827279,-0.1638859431,-0.0607013438,-0.5362379010,-1.1631197663,9.5164486197
1520503194002328810,-0.0213133889,-0.1742680547,-0.0962812277,-0.5506687136,-1.1523263785,9.3329598116
1520503194007344810,0.0095620205,-0.1779470622,-0.1323501389,-0.5350353333,-1.1511284557,9.1189719889
1520503194012360810,0.0467336691,-0.1723029456,-0.1670068500,-0.4532607288,-1.0432121865,8.9402627796
1520503194017377810,0.0841688012,-0.1585036059,-0.2002490519,-0.3209782804,-0.9736723445,8.8203687183
1520503194022393810,0.1241298432,-0.1400629821,-0.2253439749,-0.1634419100,-0.8513722908,8.7850139087
1520503194027409810,0.1635956697,-0.1195981607,-0.2447409390,-0.0407800033,-0.7062858529,8.8534071401
1520503194032425810,0.1980398634,-0.1003205141,-0.2568327217,0.1083383931,-0.5228289819,8.9342890250
1520503194037441810,0.2274528820,-0.0874669511,-0.2646353436,0.2370131384,-0.3969292591,9.0898032371
1520503194042456810,0.2513423719,-0.0760957865,-0.2637813443,0.3416365294,-0.2434474333,9.2978211336
1520503194047472810,0.2686886244,-0.0749402089,-0.2575821002,0.4534753267,-0.1199446800,9.4267722442
1520503194052488810,0.2782382739,-0.0799133143,-0.2489801595,0.5893654783,0.0407295531,9.5845066031
1520503194057504810,0.2785025218,-0.0814196718,-0.2305946207,0.8647534845,0.4747969383,9.7952373320
1520503194062521810,0.2631939184,-0.0858845857,-0.1978634435,1.1221029751,0.5898943757,9.8855917097
1520503194067537810,0.2431355907,-0.0690671879,-0.1698309394,0.9826051204,0.3548737172,9.8383686406
1520503194072553810,0.2378801166,-0.0606533405,-0.1570410116,0.7685480675,0.4484233417,9.9414674562
1520503194077569810,0.2079860979,-0.0592365429,-0.1464230662,0.7204453590,0.4532236498,10.0999825589
1520503194082585810,0.1798499831,-0.0586932096,-0.1358150571,0.6194296711,0.3824822323,10.1358990933
1520503194087602810,0.1393886605,-0.0645556907,-0.1287501831,0.6987991402,0.4088571400,10.2908281240
1520503194092616810,0.1022041177,-0.0645957573,-0.1192120017,0.5713269626,0.2877538852,10.2317554776
1520503194097634810,0.0599701543,-0.0797803187,-0.1132971829,0.6013911554,0.2313919438,10.2524364013
1520503194102649810,0.0185094857,-0.0821502214,-0.1048510354,0.6074039940,0.2050103862,10.3000515036
1520503194107665810,-0.0234610334,-0.0874232399,-0.1004843739,0.5773398012,0.1522505491,10.2318290877
1520503194112680810,-0.0546263184,-0.0929826809,-0.0964105503,0.5352499312,0.1774357761,10.1706205789
1520503194117697810,-0.0890523762,-0.0953439994,-0.0901418383,0.4426522173,0.0671220689,10.0426314686
1520503194122713810,-0.1179553993,-0.1003190568,-0.0863383151,0.3909418056,0.0251561815,10.0582835843
1520503194127729810,-0.1420803574,-0.1029618957,-0.0822553290,0.3680930191,-0.0192102346,9.9864963207
1520503194132745810,-0.1566572342,-0.1058894642,-0.0792744850,0.3260031491,-0.0611768713,9.9172182873
1520503194137761810,-0.1707255699,-0.1029825893,-0.0786850259,0.2346080030,-0.0599706128,9.8727830881
1520503194142776810,-0.1770071115,-0.1003538487,-0.0818999008,0.1564411016,-0.1199215460,9.7434422608
1520503194147793810,-0.1797701597,-0.0968466625,-0.0861968241,0.1047306900,-0.1103243953,9.7148826247
1520503194152809810,-0.1752386342,-0.0880909712,-0.0907378128,0.0566279814,-0.1594854062,9.6235893975
1520503194157826810,-0.1689504788,-0.0804972150,-0.0963731445,0.0890973097,-0.1283102840,9.6604315647
1520503194162841810,-0.1614031046,-0.0720339120,-0.1001103193,0.1792898882,-0.1642915212,9.5945087042
1520503194167857810,-0.1513488149,-0.0685253467,-0.1030783160,0.2237848935,-0.1858795143,9.5894480894
1520503194172873810,-0.1387708929,-0.0583190518,-0.1041060278,0.3007492272,-0.1595044192,9.6188889831
1520503194177889810,-0.1266989637,-0.0533702586,-0.1005735414,0.3596750451,-0.1379244809,9.6252672510
1520503194182905810,-0.1148821636,-0.0522139332,-0.0954462130,0.3861315348,-0.1307316989,9.6215162918
1520503194187921810,-0.1050709164,-0.0481474640,-0.0892107364,0.4366393787,-0.0623846285,9.6035258678
1520503194192936810,-0.0940047196,-0.0470023605,-0.0800238195,0.4606907330,-0.0324079911,9.6067489650
1520503194197954810,-0.0874630936,-0.0481966613,-0.0684113731,0.4546778944,-0.0084247143,9.6579184375
1520503194202968810,-0.0779047369,-0.0482227857,-0.0573367268,0.4871472227,-0.0012324006,9.6285417861
1520503194207985810,-0.0683388608,-0.0441760825,-0.0437960443,0.4534753267,0.0059650644,9.6428082391
1520503194213000810,-0.0592791382,-0.0398250800,-0.0351220314,0.3428390971,0.0119693832,9.6392306818
1520503194218017810,-0.0514741965,-0.0351875558,-0.0248201864,0.2983440917,-0.0240013640,9.6768874556
1520503194223033810,-0.0431633091,-0.0264631671,-0.0171936107,0.2478362478,-0.0563742218,9.7111128148
1520503194228049810,-0.0353573442,-0.0168531667,-0.0138881665,0.1925181330,-0.0671621772,9.7627961054
1520503194233065810,-0.0295662077,-0.0084000225,-0.0141049776,0.1179589348,-0.0491692639,9.8192871886
1520503194238081810,-0.0257876613,-0.0014038602,-0.0145997162,0.0674510909,-0.0563601728,9.8732444389
1520503194243096810,-0.0194969146,0.0064739962,-0.0175273658,0.0794767680,-0.0635559519,9.9010258593
1520503194248112810,-0.0169817151,0.0123216105,-0.0245217646,0.0939075805,-0.0407734078,9.9380517877
1520503194253128810,-0.0154657363,0.0193198005,-0.0260944863,0.0746664971,-0.0491658922,9.8929236398
1520503194258145810,-0.0106813751,0.0280704913,-0.0287421204,0.0446023043,-0.0551592528,9.8978706887
1520503194263161810,-0.0091616092,0.0391538921,-0.0324480861,0.0866921743,-0.0671539351,9.8777162579
1520503194268177810,-0.0073895761,0.0511122734,-0.0364183951,0.0686536586,-0.0347757388,9.8557795265
1520503194273193810,-0.0068755700,0.0645387399,-0.0447039894,0.0746664971,-0.0347762071,9.8568831451
1520503194278209810,-0.0056111017,0.0744645169,-0.0513943855,0.0975152837,-0.0767479015,9.8671609715
1520503194283225810,-0.0086241236,0.0808941911,-0.0589151620,0.0975152837,-0.0779470419,9.9113236111
1520503194288241810,-0.0116431321,0.0817824602,-0.0645843559,0.1564411016,-0.0659602270,10.0037098863
1520503194293256810,-0.0116434770,0.0841251914,-0.0688953055,0.1095409608,-0.0587617317,10.0239158147
1520503194298273810,-0.0169270369,0.0820950870,-0.0732298003,0.1756821850,-0.0155978278,10.0499592513
1520503194303290810,-0.0186966824,0.0762754484,-0.0765175457,0.1961258361,-0.0155994200,10.0114095149
1520503194308304810,-0.0217191291,0.0721992542,-0.0781663436,0.1756821850,0.0107832616,10.0522578138
1520503194313321810,-0.0229843775,0.0660811437,-0.0787517865,0.1468205599,0.0779373731,10.1175533136
1520503194318338810,-0.0234964782,0.0590877181,-0.0788042071,0.1504282631,0.1366949729,10.1592980831
1520503194323353810,-0.0219930879,0.0547124419,-0.0769465325,0.1528333985,0.1618767344,10.1662229806
1520503194328370810,-0.0212423630,0.0509181826,-0.0745419197,0.1275794765,0.1870606502,10.1304177681
1520503194333385810,-0.0189802463,0.0465271762,-0.0667336355,0.1528333985,0.2038466493,10.1592091900
1520503194338401810,-0.0139483421,0.0465094777,-0.0594382308,0.1372000182,0.2146401307,10.1430808163
1520503194343416810,-0.0104231331,0.0464875463,-0.0507872962,0.1107435285,0.2206378933,10.0433881008
1520503194348433810,-0.0048884980,0.0470549990,-0.0443000165,0.0878947420,0.1966568644,10.0343367320
1520503194353449810,0.0016516422,0.0484999129,-0.0388901179,0.0325766272,0.1798732068,10.0151350882
1520503194358464810,0.0051820026,0.0537294588,-0.0326340809,0.0554254137,0.1546894784,10.0300451196
1520503194363481810,0.0051924662,0.0586706125,-0.0279970082,0.0758690649,0.1091205501,9.9927019620
1520503194368497810,0.0049419554,0.0577898046,-0.0255682977,0.1311871796,0.0839342928,10.0502952832
1520503194373513810,0.0082098437,0.0554461681,-0.0204517778,0.1792898882,0.0863288273,10.0904997807
1520503194378529810,0.0077032355,0.0498980103,-0.0161643486,0.2033412424,0.1246994476,10.0495532223
1520503194383545810,0.0039313694,0.0452212692,-0.0113230910,0.2406208415,0.1354888080,10.0875305920
1520503194388560810,0.0034300419,0.0440460646,-0.0078139532,0.2622670604,0.1690630539,10.0977464551
1520503194393577810,-0.0005945696,0.0402521199,-0.0062121104,0.3067620657,0.2170252054,10.0856451549
1520503194398594810,-0.0013496579,0.0379141924,-0.0037935819,0.3043569303,0.2721858522,10.1367491094
1520503194403610810,-0.0016020152,0.0361614162,-0.0021831783,0.3019517949,0.2805800225,10.1123593111
1520503194408625810,-0.0011026323,0.0326598998,-0.0003169675,0.3199903106,0.3609210260,10.1388347005
1520503194413642810,0.0009095617,0.0338254971,-0.0000412630,0.2622670604,0.4100902790,10.1602671914
1520503194418658810,0.0046810671,0.0349910552,0.0005017203,0.2851158469,0.4748420824,10.2180888487
1520503194423673810,0.0069388871,0.0329558917,-0.0008707713,0.2911286855,0.4916295800,10.2691482867
1520503194428689810,0.0102076694,0.0364632556,-0.0043672583,0.2899261178,0.5683746607,10.3341652155
1520503194433706810,0.0094580814,0.0384975529,-0.0024564753,0.2358105707,0.6163444924,10.3904280793
1520503194438722810,0.0074506820,0.0405357285,-0.0021666340,0.2370131384,0.6619117348,10.4298848337
1520503194443737810,0.0051878988,0.0420019631,-0.0059389606,0.2285951644,0.7086788669,10.4392183165
1520503194448753810,-0.0005915744,0.0437545616,-0.0083498006,0.1865052944,0.7482537790,10.5139666184
1520503194453769810,-0.0113918374,0.0475368700,-0.0077597396,0.1720744819,0.7578480263,10.4955034211
1520503194458785810,-0.0224404551,0.0521874061,-0.0049981754,0.1804924559,0.7518516686,10.4849680368
1520503194463803810,-0.0322326257,0.0556677974,-0.0003540159,0.2057463779,0.7458539996,10.5021602366
1520503194468818810,-0.0457961291,0.0568112650,0.0059026351,0.2273925967,0.7458523137,10.4810309544
1520503194473834810,-0.0591058286,0.0588246140,0.0137887640,0.2430259770,0.7782278876,10.3983349958
1520503194478849810,-0.0729196234,0.0590865453,0.0227446714,0.2249874613,0.7374585181,10.3148759645
1520503194483866810,-0.0844698351,0.0613919680,0.0306297563,0.2297977321,0.7062804924,10.2927788119
1520503194488882810,-0.0925044115,0.0631218275,0.0363394938,0.1564411016,0.6847016781,10.2586495499
1520503194493897810,-0.1020516578,0.0636964847,0.0379849508,0.0915024451,0.6187540124,10.2488866410
1520503194498914810,-0.1123450578,0.0698064241,0.0399445926,0.0698562263,0.5671926601,10.1817432642
1520503194503930810,-0.1233961767,0.0750506557,0.0386524144,-0.0179312168,0.5180347399,10.1315113423
1520503194508945810,-0.1304325792,0.0782676974,0.0332790187,-0.0071081073,0.4952502289,10.1279417824
1520503194513962810,-0.1347020443,0.0873309949,0.0214518492,0.0193483823,0.5144344152,10.1067469705
1520503194518978810,-0.1402276546,0.0955145476,0.0115141654,0.0614382523,0.5048380137,10.0621851780
1520503194523994810,-0.1429910479,0.1013644649,0.0029062924,0.0927050128,0.5024372977,10.0223702908
1520503194529010810,-0.1460011648,0.1104187852,-0.0054061141,0.1359974505,0.5036330664,10.0347313229
1520503194534027810,-0.1505179770,0.1194688725,-0.0123629907,0.1985309716,0.5024290556,10.0422588370
1520503194539042810,-0.1515165233,0.1264711770,-0.0158248664,0.2442285447,0.5060229178,10.0081083621
1520503194544057810,-0.1515091685,0.1346423271,-0.0203619003,0.2358105707,0.4940321692,9.9349869218
1520503194549073810,-0.1504966616,0.1431067124,-0.0254396697,0.2093540810,0.4796445446,9.9573392002
1520503194554090810,-0.1494849035,0.1506954872,-0.0299830166,0.1841001590,0.4676551073,9.9378402526
1520503194559105810,-0.1467192442,0.1547897938,-0.0350973994,0.1684667787,0.5132236609,9.9228401120
1520503194564122810,-0.1462183950,0.1577227752,-0.0421102953,0.1287820442,0.5240190155,9.8441900660
1520503194569138810,-0.1444611379,0.1612419317,-0.0502032622,0.0746664971,0.5204258089,9.8470445894
1520503194574152810,-0.1379364206,0.1586402415,-0.0569990522,0.1275794765,0.5815778495,9.8209027636
1520503194579170810,-0.1349303299,0.1545751514,-0.0619056022,0.1323897474,0.6283439514,9.8498639380
1520503194584186810,-0.1284126065,0.1473134941,-0.0695485992,0.1468205599,0.6655161806,9.8543358037
1520503194589202810,-0.1218887752,0.1417877607,-0.0725789775,0.1744796173,0.7194753455,9.8389060957
1520503194594216810,-0.1136081808,0.1356850464,-0.0775108902,0.1756821850,0.7626443070,9.8725544691
1520503194599234810,-0.1080941670,0.1257837806,-0.0789494725,0.1636565079,0.7914246138,9.8610220160
1520503194604250810,-0.0978050794,0.1161757701,-0.0803946995,0.2310002998,0.8225970198,9.8150125158
1520503194609264810,-0.0900296388,0.1065689602,-0.0826468969,0.2634696281,0.8621661250,9.7902528680
1520503194614281810,-0.0799978327,0.0928829247,-0.0846638721,0.3091672012,0.8753531106,9.8571995625
1520503194619298810,-0.0704682321,0.0780245983,-0.0842538931,0.3211928783,0.9065298250,9.8768085563
1520503194624313810,-0.0606890068,0.0611230364,-0.0825072130,0.3235980137,0.9305124461,9.8779239034
1520503194629329810,-0.0461355898,0.0430541650,-0.0794255635,0.3260031491,0.9484993652,9.8627750818
1520503194634346810,-0.0353506870,0.0258586987,-0.0766007898,0.3296108523,0.9353085395,9.8418342382
1520503194639362810,-0.0268299827,0.0063290848,-0.0729779626,0.3464468003,0.9269132453,9.7847334990
1520503194644378810,-0.0152893839,-0.0111647549,-0.0674513531,0.3055594980,0.9221198681,9.7909468680
1520503194649394810,-0.0045103734,-0.0315603519,-0.0665448546,0.2935338209,0.9041336983,9.7992164664
1520503194654410810,0.0017489512,-0.0502137846,-0.0639933412,0.2779004406,0.8537710181,9.7715262895
1520503194659425810,0.0054964323,-0.0677012069,-0.0619693600,0.2682798989,0.8273906781,9.7193491774
1520503194664442810,0.0117512248,-0.0898519823,-0.0591739777,0.2273925967,0.7890213690,9.6337859156
1520503194669458810,0.0137375951,-0.1070406965,-0.0601205112,0.1816950236,0.7410593111,9.6028995946
1520503194674474810,0.0154828322,-0.1157749872,-0.0626253839,0.1384025859,0.6978936276,9.5545530267
1520503194679490810,0.0147072088,-0.1291673159,-0.0670549800,0.0951101483,0.6607236463,9.4817955891
1520503194684507810,0.0169525423,-0.1373077143,-0.0736145284,0.0794767680,0.5995687022,9.4053058902
1520503194689521810,0.0174480205,-0.1396254818,-0.0785030727,0.0518177106,0.5743889075,9.4172211022
1520503194694537810,0.0131649123,-0.1422248496,-0.0877137066,0.0482100075,0.5863805928,9.3707587658
1520503194699554810,0.0121475010,-0.1456970911,-0.0969370772,0.0915024451,0.5719875359,9.3134063621
1520503194704570810,0.0131425464,-0.1482973051,-0.1050753287,0.1203640702,0.5659895860,9.3015098479
1520503194709585810,0.0098696007,-0.1488638718,-0.1115668090,0.1456179922,0.6019618318,9.2779860824
1520503194714602810,0.0081106461,-0.1468161281,-0.1147945311,0.2069489456,0.6055544764,9.2192784188
1520503194719618810,0.0078575910,-0.1468103991,-0.1169584315,0.2297977321,0.5707776246,9.1923606226
1520503194724634810,0.0033339102,-0.1447622816,-0.1207221114,0.1696693465,0.5875702735,9.1789837772
1520503194729650810,0.0000694914,-0.1421374586,-0.1220487658,0.1552385339,0.5707834315,9.1663570252
1520503194734666810,-0.0041959436,-0.1365999126,-0.1230807764,0.1660616433,0.5755791503,9.1395176914
1520503194739682810,-0.0079624308,-0.1330989476,-0.1252114657,0.1624539402,0.5515966228,9.1198197461
1520503194744698810,-0.0137365801,-0.1272662373,-0.1278617283,0.1504282631,0.5611906828,9.0792524036
1520503194749714810,-0.0177491324,-0.1205630547,-0.1288853134,0.1468205599,0.5216193298,9.0223810532
1520503194754730810,-0.0267855090,-0.1135762842,-0.1277329737,0.1384025859,0.4724552280,8.9655658777
1520503194759745810,-0.0340602886,-0.1057190415,-0.1249539565,0.1215666379,0.4724565393,8.9355140057
1520503194764763810,-0.0380688853,-0.0975654921,-0.1235315130,0.0506151429,0.4412844142,8.9036949761
1520503194769778810,-0.0476115996,-0.0934934922,-0.1221299249,0.0421971689,0.4436833507,8.8968017091
1520503194774795810,-0.0548905545,-0.0870858878,-0.1220674820,0.0145381115,0.4616726112,8.8796212260
1520503194779810810,-0.0621697328,-0.0821410335,-0.1198517874,0.0049175698,0.4364914116,8.8564965435
1520503194784826810,-0.0707036019,-0.0760318618,-0.1173543210,-0.0010952688,0.4065133693,8.8217199836
1520503194789842810,-0.0767268154,-0.0719628541,-0.1143359916,-0.0107158105,0.3873278718,8.8067244621
1520503194794859810,-0.0797340470,-0.0676012804,-0.1113210398,-0.0155260813,0.3849299656,8.7800443101
1520503194799874810,-0.0842504319,-0.0629430855,-0.1104654317,-0.0263491907,0.3885282298,8.7824704355
1520503194804889810,-0.0857499606,-0.0594587168,-0.1061072200,-0.0600210867,0.4233059246,8.7630078190
1520503194809905810,-0.0842415522,-0.0591674699,-0.1058372514,-0.0335645970,0.4137107407,8.7720568141
1520503194814922810,-0.0809701824,-0.0568394844,-0.1042022587,-0.0191337845,0.3969216508,8.7428791253
1520503194819938810,-0.0754387502,-0.0553833094,-0.1031192276,-0.0251466230,0.4113118042,8.7440857625
1520503194824953810,-0.0671385028,-0.0518921873,-0.0998614017,-0.0143235136,0.3849298719,8.7335468468
1520503194829970810,-0.0555704023,-0.0475249031,-0.0968735198,-0.0299568939,0.3969224937,8.7569301983
1520503194834987810,-0.0457639889,-0.0449058869,-0.0941662553,-0.0576159513,0.4149117543,8.7862354733
1520503194840003810,-0.0354590668,-0.0443219949,-0.0930987612,-0.0816673055,0.4400955764,8.8317686325
1520503194845018810,-0.0221357439,-0.0419900712,-0.0914824375,-0.1141366338,0.4592843520,8.7995259289
1520503194850033810,-0.0103184537,-0.0382010870,-0.0901227439,-0.1369854203,0.4460955868,8.8369497943
1520503194855050810,0.0042590346,-0.0364463410,-0.0904070212,-0.1983163737,0.4556934869,8.8596181326
1520503194860065810,0.0148168394,-0.0346968125,-0.0893311015,-0.2680653011,0.4353135320,8.8672897683
1520503194865083810,0.0256249785,-0.0323585889,-0.0904155695,-0.3125603064,0.4509058229,8.8874641012
1520503194870099810,0.0394502914,-0.0273901673,-0.0939205435,-0.3342065253,0.4664963343,8.8899838787
1520503194875114810,0.0530209222,-0.0232887134,-0.1001371790,-0.4424376194,0.4725004658,8.8898693432
1520503194880131810,0.0650846852,-0.0180201268,-0.1071537594,-0.4616787028,0.4569131388,8.9214497122
1520503194885147810,0.0794158968,-0.0101354777,-0.1114490737,-0.4845274894,0.4653089014,8.9635011053
1520503194890161810,0.0952497499,-0.0075017153,-0.1133522908,-0.4893377602,0.4689066973,8.9728415691
1520503194895179810,0.1100764749,-0.0051546321,-0.1171496853,-0.4436401871,0.4377254872,9.0223993698
1520503194900194810,0.1244008610,-0.0045647943,-0.1177129341,-0.4063605880,0.4137397752,9.1278149997
1520503194905210810,0.1414931802,-0.0034005739,-0.1147597741,-0.4532607288,0.4796961513,9.2014222524
1520503194910226810,0.1620994607,-0.0048552507,-0.1126447937,-0.4568684320,0.5156706450,9.2688266367
1520503194915243810,0.1799451903,-0.0048599152,-0.1083491967,-0.4700966768,0.5204682369,9.2887071622
1520503194920258810,0.1970347887,-0.0031012709,-0.1097203249,-0.4905403280,0.4880930377,9.4841779046
1520503194925274810,0.2367652511,0.0132216206,-0.1058819318,-0.5085788436,0.5816273956,9.3971014754
1520503194930290810,0.2297071452,-0.0045636051,-0.1030284669,-0.5025660051,0.5576441189,9.5923065212
1520503194935306810,0.2457948454,-0.0013528026,-0.1027633374,-0.5314276302,0.5456549625,9.6658142051
1520503194940321810,0.2694314095,0.0091455668,-0.1024566324,-0.4989583019,0.5600421187,9.6515384091
1520503194945338810,0.2842654265,0.0126392488,-0.0992109413,-0.4400324840,0.5552409677,9.7276710396
1520503194950354810,0.2928172314,0.0143734211,-0.0927203699,-0.3354090930,0.5132629045,9.8661509011
1520503194955370810,0.3069083016,0.0239771417,-0.0861800431,-0.2873063845,0.5168565793,9.8714899106
1520503194960385810,0.3116978377,0.0303690759,-0.0785647178,-0.2704704365,0.5564269021,9.9514753845
1520503194965402810,0.3154849032,0.0376296708,-0.0690470352,-0.1874932643,0.5228445077,10.0390234176
1520503194970418810,0.3225506891,0.0539259229,-0.0600075961,-0.1730624517,0.5264408050,10.0516630324
1520503194975434810,0.3245846963,0.0678978708,-0.0542231580,-0.1574290715,0.5564180980,10.1525881572
1520503194980450810,0.3220962459,0.0815722914,-0.0468092666,-0.1658470455,0.5887955451,10.2177185819
1520503194985466810,0.3216152458,0.0958426520,-0.0439939430,-0.1778727226,0.6451560816,10.2898335986
1520503194990481810,0.3143528311,0.1136106108,-0.0424920703,-0.1586316392,0.6979167616,10.4046471183
1520503194995497810,0.3080908563,0.1264188706,-0.0385949439,-0.0624262221,0.7506714475,10.4745500440
1520503195000515810,0.2973015429,0.1363115129,-0.0347116474,-0.0287543262,0.8034310036,10.5438994888
1520503195005531810,0.2817339921,0.1450433023,-0.0332632885,0.0097278406,0.8453979213,10.6108883495
1520503195010546810,0.2694334554,0.1528978475,-0.0302043909,0.0458048720,0.9005555710,10.6976442047
1520503195015563810,0.2538616352,0.1578387243,-0.0277027485,0.1191615025,0.9185369641,10.7062098078
1520503195020579810,0.2345183959,0.1610283603,-0.0246663521,0.2153669196,0.9173303309,10.7784896418
1520503195025594810,0.2141741836,0.1668378779,-0.0207964432,0.2550516541,0.9425091890,10.8315374407
1520503195030611810,0.1913074878,0.1685801393,-0.0218228165,0.2658747635,0.9293178014,10.8082020788
1520503195035626810,0.1679393351,0.1700257203,-0.0209566581,0.3248005814,0.8837458760,10.8599694439
1520503195040641810,0.1430642245,0.1717606382,-0.0195443845,0.4198034308,0.8753444939,10.8706743693
1520503195045659810,0.1121507676,0.1670776346,-0.0162759962,0.4787292487,0.8345691301,10.9177884812
1520503195050674810,0.0792286373,0.1641443357,-0.0138021732,0.5484781760,0.7770049575,10.8788149658
1520503195055690810,0.0448016150,0.1623716137,-0.0096933822,0.6518989994,0.7122433199,10.8534664522
1520503195060705810,0.0063538939,0.1585481551,-0.0020755886,0.5749346657,0.6714785397,10.8716874926
1520503195065721810,-0.0318390942,0.1582257798,0.0039451400,0.5689218272,0.6235133911,10.8067127301
1520503195070739810,-0.0707842616,0.1596536017,0.0091689696,0.5196165509,0.5995344227,10.7258659474
1520503195075754810,-0.1092272234,0.1622537144,0.0119658450,0.4342342433,0.5971427917,10.6848621627
1520503195080771810,-0.1451531431,0.1701099312,0.0110104261,0.3717007222,0.5863553982,10.6448063113
1520503195085787810,-0.1808264860,0.1797181958,0.0087151496,0.2887235500,0.5647773331,10.6526078720
1520503195090801810,-0.2112229416,0.1919641005,0.0015602535,0.2069489456,0.5923639318,10.6673226485
1520503195095819810,-0.2416176368,0.2056676562,-0.0058540731,0.2069489456,0.5935630722,10.6870779264
1520503195100835810,-0.2669866143,0.2211302294,-0.0165109464,0.2225823258,0.6055532588,10.6845897793
1520503195105850810,-0.2875805259,0.2339591007,-0.0223268690,0.2574567895,0.6439230362,10.6935100655
1520503195110865810,-0.3061715701,0.2412524537,-0.0281887641,0.3163826074,0.6619055533,10.7184861446
1520503195115882810,-0.3230015506,0.2470764614,-0.0291952155,0.3837263994,0.6798874146,10.7201374093
1520503195120898810,-0.3345585289,0.2476481456,-0.0267343870,0.4318291079,0.6702905449,10.6755170915
1520503195125915810,-0.3436108341,0.2421017393,-0.0243249105,0.4450573527,0.6690903742,10.5917151405
1520503195130931810,-0.3499007027,0.2342209693,-0.0203150773,0.4282214047,0.6127320855,10.5001245978
1520503195135947810,-0.3526730934,0.2251731257,-0.0152384869,0.4522727590,0.5623663145,10.4348595475
1520503195140961810,-0.3501667972,0.2184642534,-0.0123182803,0.4246137016,0.4688355157,10.3631670471
1520503195145979810,-0.3476696945,0.2056392197,-0.0105269420,0.4462599204,0.4316604767,10.3118582716
1520503195150995810,-0.3323468523,0.1983489574,-0.0062822549,0.4739189778,0.3333288078,10.3883864421
1520503195156010810,-0.3135075789,0.1925293795,-0.0066322668,0.3692955868,0.4364630326,10.1533889962
1520503195161025810,-0.3339090645,0.1596000520,-0.0087394921,0.4137905922,0.2889652951,10.3622856496
1520503195166043810,-0.2997274017,0.1657434435,-0.0128144701,0.3861315348,0.3297382237,10.1533291966
1520503195171059810,-0.2758647823,0.1613980544,-0.0188441648,0.4727164101,0.4316584162,10.2151428122
1520503195176075810,-0.2552757829,0.1506343698,-0.0224817869,0.5340473635,0.4136665332,10.2203741142
1520503195181093810,-0.2256317497,0.1477496246,-0.0290521926,0.5340473635,0.4280562182,10.2087386426
1520503195186107810,-0.1904612593,0.1413616900,-0.0324129925,0.5641115563,0.4640280894,10.1723844734
1520503195191121810,-0.1527638318,0.1460509941,-0.0370467119,0.6170245357,0.4184566323,10.2939390010
1520503195196138810,-0.1158346416,0.1408358426,-0.0428367995,0.5568961500,0.5527650427,10.0747480805
1520503195201155810,-0.1025538473,0.1175514231,-0.0508852137,0.6771529213,0.5047900598,10.2095951911
1520503195206170810,-0.0580680583,0.1222324590,-0.0514733461,0.6627221088,0.5263757113,10.0935002082
1520503195211186810,-0.0208857188,0.1193528528,-0.0588693912,0.7324710361,0.4484261515,10.0905730341
1520503195216203810,0.0122760001,0.1109098702,-0.0568311010,0.7481044164,0.4352343893,10.0265158136
1520503195221218810,0.0401716990,0.1079887427,-0.0501414907,0.7938019895,0.3860660729,9.9494174634
1520503195226234810,0.0748519410,0.1056574131,-0.0450833112,0.8503226720,0.3356977731,9.8257291788
1520503195231251810,0.0957046316,0.0986577877,-0.0397644853,0.8358918594,0.2133865738,9.7888003056
1520503195236266810,0.1170645773,0.0928136992,-0.0306500581,0.8130430729,0.1714184385,9.7065514078
1520503195241282810,0.1328923027,0.0863941452,-0.0250469057,0.7817763124,0.0922776057,9.6348799905
1520503195246298810,0.1459557881,0.0811441454,-0.0213235483,0.8455124011,0.0023371100,9.5309165110
1520503195251314810,0.1527353953,0.0750182590,-0.0178657380,0.8274738854,-0.0851987360,9.4858538344
1520503195256330810,0.1590156588,0.0706375692,-0.0133114721,0.8106379375,-0.1283664800,9.3872775653
1520503195261346810,0.1592628687,0.0686023465,-0.0149507758,0.8431072657,-0.1979191534,9.3730836230
1520503195266363810,0.1564951473,0.0651002786,-0.0133490435,0.8996279482,-0.2183089426,9.3760397960
1520503195271378810,0.1489529637,0.0601321331,-0.0090440999,0.9152613285,-0.2782671814,9.3143524676
1520503195276394810,0.1409036544,0.0531299264,-0.0069181516,0.9513383599,-0.3262356081,9.3001023620
1520503195281410810,0.1308465890,0.0461181909,-0.0015419188,1.0391258029,-0.3382338495,9.2969352984
1520503195286427810,0.1162653920,0.0367655942,0.0068009351,1.1209004074,-0.3322445163,9.2879985002
1520503195291442810,0.1011797037,0.0253701953,0.0162113446,1.2002698765,-0.3178610127,9.2848876465
1520503195296459810,0.0860889110,0.0098939560,0.0261317226,1.2904624549,-0.2938852288,9.2979321079
1520503195301475810,0.0699979764,-0.0041359524,0.0398527255,1.3409702989,-0.2794994774,9.3125343349
1520503195306491810,0.0534029465,-0.0199172787,0.0546435069,1.4131243617,-0.2279420588,9.3280517653
1520503195311506810,0.0373096362,-0.0356954943,0.0683511713,1.3830601688,-0.1751775387,9.3434008122
1520503195316523810,0.0204621667,-0.0511804354,0.0812508212,1.3493882729,-0.1284084397,9.3692501165
1520503195321539810,0.0081365432,-0.0651950269,0.0898244512,1.3253369186,-0.0612547028,9.3601215830
1520503195326555810,-0.0011698836,-0.0754153390,0.0965275594,1.2519802881,-0.0108850917,9.3514893276
1520503195331571810,-0.0117280882,-0.0789197306,0.0978732142,1.1942570379,0.0502755655,9.3868558526
1520503195336587810,-0.0175116504,-0.0792024531,0.0938235373,1.1148875688,0.1090396278,9.3991925282
1520503195341602810,-0.0212806820,-0.0748149513,0.0871002371,1.0812156729,0.1821898162,9.3924760764
1520503195346619810,-0.0202706802,-0.0672203489,0.0803925230,1.0042513393,0.1773992487,9.3688248543
1520503195351635810,-0.0197647227,-0.0587430488,0.0704458609,1.0499489123,0.1642051450,9.3742036447
1520503195356651810,-0.0179986172,-0.0467649999,0.0591708127,1.0571643186,0.2073736382,9.3601455907
1520503195361666810,-0.0122157763,-0.0371135382,0.0467883286,1.0222898549,0.1450210524,9.3175465167
1520503195366683810,-0.0056693203,-0.0219327594,0.0371521420,0.9922256621,0.1030534790,9.2609350162
1520503195371698810,0.0038881976,-0.0073211849,0.0229066283,0.9681743079,0.0982587905,9.2553630749
1520503195376715810,0.0136973280,0.0096310339,0.0051613359,0.9080459222,0.0490987162,9.1990512169
1520503195381731810,0.0232606049,0.0268577849,-0.0063587110,0.8767791617,0.0383088875,9.1621774659
1520503195386746810,0.0365832928,0.0379727651,-0.0200968108,0.8515252397,-0.0144513242,9.1799068823
1520503195391761810,0.0491575845,0.0534596746,-0.0343412560,0.8551329428,-0.0564215200,9.1427240875
1520503195396778810,0.0569527880,0.0616418896,-0.0418687631,0.8972228128,-0.0744119045,9.1074676319
1520503195401795810,0.0660081786,0.0715685334,-0.0477619899,0.9345024119,-0.1187830036,9.0943644572
1520503195406811810,0.0728039380,0.0794385739,-0.0477145681,0.9669717402,-0.1415692005,9.0499091679
1520503195411826810,0.0778348425,0.0832292703,-0.0479655484,0.9320972765,-0.1763415566,8.9921753277
1520503195416843810,0.0800998761,0.0858533456,-0.0482202870,0.8683611877,-0.1943236990,8.9962996676
1520503195421858810,0.0818606380,0.0864338901,-0.0471369243,0.8515252397,-0.2183051962,8.9790547659
1520503195426875810,0.0818597519,0.0835098468,-0.0433715127,0.9357049796,-0.2231083141,9.0270501354
1520503195431891810,0.0803480777,0.0770827710,-0.0374656105,1.0246949904,-0.1787470493,9.1063286285
1520503195436907810,0.0753269703,0.0753084565,-0.0285416000,0.8996279482,-0.2722702617,8.9809634718
1520503195441922810,0.0733219388,0.0761679822,-0.0233908249,0.8419046980,-0.3478116127,8.9537075280
1520503195446939810,0.0677904556,0.0720776917,-0.0201651294,0.8382969949,-0.3022439956,9.0838583311
1520503195451955810,0.0617572490,0.0665208119,-0.0134325193,0.8382969949,-0.3550061742,9.0606669030
1520503195456971810,0.0521988216,0.0565954281,-0.0080794508,0.8407021303,-0.3993745572,9.1083346605
1520503195461986810,0.0446521061,0.0481299398,-0.0035306383,0.7865865832,-0.4197557297,9.1286377141
1520503195467003810,0.0371063118,0.0393686964,0.0026392264,0.7925994218,-0.3957733895,9.1506365371
1520503195472019810,0.0282957552,0.0256585228,0.0068798110,0.7613326612,-0.3334156524,9.2299058518
1520503195477035810,0.0162168163,0.0101958483,0.0121953082,0.7444967133,-0.3178255156,9.2660809838
1520503195482050810,0.0043852558,-0.0099368928,0.0204507740,0.8046250989,-0.2602714583,9.3061146411
1520503195487067810,-0.0081965945,-0.0277403100,0.0292665166,0.7841814478,-0.2194990917,9.2993010058
1520503195492081810,-0.0225389871,-0.0461250001,0.0372694423,0.7276607653,-0.2842482725,9.2662121131
1520503195497099810,-0.0366309551,-0.0630431995,0.0417659201,0.6903811662,-0.2770505265,9.2805136812
1520503195502115810,-0.0499641457,-0.0773430134,0.0479042808,0.6795580568,-0.2758505432,9.3456979189
1520503195507130810,-0.0648119469,-0.0960112722,0.0529299121,0.6603169733,-0.2926370105,9.3993601924
1520503195512145810,-0.0809208605,-0.1175916833,0.0571240084,0.6086065617,-0.3178149320,9.3847801945
1520503195517163810,-0.0967685722,-0.1304239042,0.0589494175,0.6110116971,-0.3274082428,9.3824418512
1520503195522179810,-0.1070859887,-0.1400399881,0.0575424618,0.5508833115,-0.3621786320,9.4248981973
1520503195527195810,-0.1204154274,-0.1470347928,0.0561611146,0.5039831707,-0.3981491920,9.4172547669
1520503195532210810,-0.1292101808,-0.1458697869,0.0551041587,0.4739189778,-0.4089391143,9.4047743339
1520503195537226810,-0.1359940142,-0.1438276545,0.0532385006,0.4510701913,-0.4209287390,9.4073327113
1520503195542242810,-0.1488136809,-0.1444067036,0.0500113065,0.4727164101,-0.4473115142,9.4013370260
1520503195547259810,-0.1583696737,-0.1470227076,0.0462213917,0.4727164101,-0.4712943227,9.4025225567
1520503195552274810,-0.1643939378,-0.1417794206,0.0460020627,0.4799318164,-0.4173335656,9.4233182973
1520503195557289810,-0.1626125428,-0.1263397221,0.0477398945,0.5196165509,-0.5384498391,9.6055067345
1520503195562306810,-0.1646119837,-0.1202301758,0.0510368639,0.4041700505,-0.4005396991,9.3368785485
1520503195567322810,-0.2013370298,-0.1464698862,0.0511754737,0.4005623473,-0.4317170691,9.5542649859
1520503195572338810,-0.1960411441,-0.1327727459,0.0512701575,0.3223954460,-0.4017324706,9.4689979285
1520503195577355810,-0.1952687276,-0.1199551735,0.0527193026,0.3488519357,-0.4041328120,9.5001206427
1520503195582370810,-0.1907310941,-0.1094635583,0.0527909326,0.3524596388,-0.3297863867,9.4465544066
1520503195587386810,-0.1995319201,-0.1132542747,0.0525078219,0.2370131384,-0.3057945869,9.4674111525
1520503195592402810,-0.2015430125,-0.1129600356,0.0511610493,0.2430259770,-0.2914053701,9.5080136335
1520503195597419810,-0.1969978126,-0.0972249558,0.0518137867,0.2682798989,-0.2794159327,9.6460512645
1520503195602435810,-0.1846669201,-0.0832278467,0.0497332582,0.2237848935,-0.1786846717,9.5429553152
1520503195607450810,-0.1964945915,-0.0940071458,0.0472380270,0.2045438101,-0.1990685604,9.7023761966
1520503195612466810,-0.1866813958,-0.0838004770,0.0456743574,0.1792898882,-0.1834777680,9.7514168474
1520503195617483810,-0.1708310848,-0.0677571988,0.0417090350,0.2081515133,-0.1367135393,9.7487660339
1520503195622499810,-0.1730937818,-0.0668766470,0.0390144459,0.0902998774,-0.1007301480,9.7777695042
1520503195627515810,-0.1793769974,-0.0662912403,0.0371367388,0.0530202783,-0.1402988785,9.9211146555
1520503195632531810,-0.1620185405,-0.0496631455,0.0326319706,0.0097278406,-0.0899316089,9.8808118869
1520503195637547810,-0.1511983304,-0.0324373591,0.0216506818,-0.0383748679,-0.0419622456,9.9126112023
1520503195642562810,-0.1569908506,-0.0329830574,0.0070474918,-0.0948955504,-0.0719363542,10.0282428249
1520503195647578810,-0.1489402907,-0.0180821459,-0.0066519066,-0.0900852795,-0.0707375884,10.1409227989
1520503195652594810,-0.1368622220,0.0003103993,-0.0178971826,-0.0816673055,-0.0419588738,10.0606248665
1520503195657609810,-0.1378683190,0.0079231531,-0.0316353562,-0.0936929827,-0.0311656734,10.1560271973
1520503195662626810,-0.1320845960,0.0190351796,-0.0453594543,-0.1045160921,-0.0047837412,10.2339704623
1520503195667643810,-0.1192589623,0.0342293463,-0.0590654974,-0.0696416284,0.0431791596,10.2277735223
1520503195672659810,-0.1159969819,0.0392227700,-0.0733727048,-0.0047029719,0.1199190891,10.3502538707
1520503195677675810,-0.1102204294,0.0453827164,-0.0876756872,0.0433997366,0.1654826788,10.4066862873
1520503195682690810,-0.1014195836,0.0564908253,-0.0995115647,0.1191615025,0.2278320802,10.3907801917
1520503195687707810,-0.0961487573,0.0585631787,-0.1108687319,0.1552385339,0.2877862916,10.4170998840
1520503195692722810,-0.0923822935,0.0626724477,-0.1213958995,0.2153669196,0.2961755915,10.4862350830
1520503195697739810,-0.0823315086,0.0691196250,-0.1335402259,0.2682798989,0.3033663131,10.4984966280
1520503195702754810,-0.0742861040,0.0773055805,-0.1424209292,0.3175851752,0.2997650517,10.5665867220
1520503195707770810,-0.0685018165,0.0860741475,-0.1515635317,0.3103697689,0.3081595966,10.5829187823
1520503195712786810,-0.0644759190,0.0945469986,-0.1593523608,0.3079646335,0.3105580648,10.6212906043
1520503195717803810,-0.0606999091,0.1053566548,-0.1692873056,0.2959389563,0.2913727546,10.6435070994
1520503195722819810,-0.0564191021,0.1176227023,-0.1789415226,0.2839132792,0.2386115126,10.6378648811
1520503195727834810,-0.0546557252,0.1272682181,-0.1896932637,0.1973284039,0.2338216944,10.6305773148
1520503195732851810,-0.0569137059,0.1348651826,-0.1977476398,0.1720744819,0.2542090485,10.6703161367
1520503195737866810,-0.0556581644,0.1398447070,-0.2071812873,0.1480231276,0.2542109217,10.6903066851
1520503195742882810,-0.0566689697,0.1436680051,-0.2204072692,0.0987178514,0.2901889744,10.7302644066
1520503195747899810,-0.0576815824,0.1448630151,-0.2314888917,0.0890973097,0.3729304129,10.7442230901
1520503195752915810,-0.0586911568,0.1492676254,-0.2441693357,0.0409946012,0.4424843039,10.8027306684
1520503195757931810,-0.0559294453,0.1548385223,-0.2565773422,0.0061201375,0.5432148156,10.8378362092
1520503195762945810,-0.0594580846,0.1528229473,-0.2660554761,0.0133355438,0.6403446279,10.8725355810
1520503195767963810,-0.0579597280,0.1543183391,-0.2801155476,-0.0010952688,0.7194890198,10.8911931686
1520503195772978810,-0.0534354042,0.1628052273,-0.2930456821,-0.0143235136,0.8070273010,10.9179658734
1520503195777995810,-0.0463997583,0.1721767232,-0.3094909113,-0.0107158105,0.9101530964,10.9422352181
1520503195783011810,-0.0466713530,0.1684388876,-0.3281870115,-0.0287543262,0.9940943309,10.9853282665
1520503195788026810,-0.0409099725,0.1658682247,-0.3466148748,0.0001072989,1.0780319127,11.0709641440
1520503195793042810,-0.0278524421,0.1667846479,-0.3604303158,0.0770716326,1.1655631694,11.1386961519
1520503195798059810,-0.0178156922,0.1627412537,-0.3723841274,0.1155537994,1.2135257892,11.1347883847
1520503195803075810,-0.0097907875,0.1566530096,-0.3827264914,0.1047306900,1.2986656022,11.1441078587
1520503195808091810,0.0060321198,0.1546399167,-0.3903467416,0.1359974505,1.3298408181,11.1379624046
1520503195813105810,0.0193485428,0.1546531476,-0.3933474828,0.1131486640,1.3778082146,11.1137330041
1520503195818123810,0.0266281210,0.1514631563,-0.3979847520,0.0289689240,1.4065941409,11.0819842632
1520503195823139810,0.0326523930,0.1491468264,-0.4026130182,-0.0407800033,1.3814176243,10.9664733172
1520503195828155810,0.0427025467,0.1494494334,-0.4053349230,-0.0624262221,1.4054021187,10.8690405293
1520503195833171810,0.0459624885,0.1474248618,-0.4104969240,-0.1237571755,1.3862206485,10.7546039451
1520503195838187810,0.0467102770,0.1456892334,-0.4151109430,-0.1562265037,1.3406558413,10.5852913992
1520503195843202810,0.0469610975,0.1474471086,-0.4186151678,-0.2283805665,1.2603190525,10.4338311903
1520503195848219810,0.0434312194,0.1419232644,-0.4237912443,-0.2428113791,1.2051597169,10.2829467265
1520503195853235810,0.0386448902,0.1361060865,-0.4284261185,-0.2560396239,1.1068312325,10.1750919802
1520503195858251810,0.0283275600,0.1259043198,-0.4287553368,-0.1790752903,1.0516647788,10.0337772278
1520503195863266810,0.0177514508,0.1098733073,-0.4285874582,-0.1393905558,0.9713192796,9.9707135331
1520503195868283810,0.0066732653,0.0917914796,-0.4243760193,-0.1021109567,0.8945713891,9.8751297098
1520503195873298810,-0.0089316863,0.0713775320,-0.4204445100,-0.0431851387,0.8334106381,9.7758335623
1520503195878315810,-0.0257914188,0.0512501060,-0.4148851686,0.0025124344,0.8070259897,9.7498473286
1520503195883330810,-0.0393792602,0.0314000475,-0.4036482077,0.1155537994,0.7590515688,9.7081187884
1520503195888346810,-0.0534710715,0.0074565684,-0.3873010646,0.2297977321,0.7146744754,9.6884557704
1520503195893362810,-0.0685676311,-0.0135618043,-0.3752585580,0.2851158469,0.6439208821,9.6693920255
1520503195898379810,-0.0841613900,-0.0354763804,-0.3551054104,0.3921443734,0.6031417719,9.6962814879
1520503195903394810,-0.1007564317,-0.0556481422,-0.3330432361,0.4594881653,0.6139287908,9.7130476400
1520503195908410810,-0.1133321426,-0.0763989124,-0.3118046132,0.5448704729,0.5899393325,9.7285099832
1520503195913427810,-0.1241499967,-0.0991937842,-0.2886909977,0.5917706137,0.6151176286,9.7512718089
1520503195918442810,-0.1347173399,-0.1211078481,-0.2680060927,0.6458861608,0.6762695755,9.6414439134
1520503195923459810,-0.1440215557,-0.1418726355,-0.2410920734,0.6831657599,0.7182365869,9.6712558726
1520503195928474810,-0.1525686563,-0.1576719357,-0.2184703962,0.6975965724,0.7602053778,9.7036145157
1520503195933491810,-0.1558386971,-0.1720049613,-0.1985528637,0.7589275258,0.8249541840,9.7110894212
1520503195938508810,-0.1563420711,-0.1831251183,-0.1810509242,0.7625352289,0.8921057667,9.7388802780
1520503195943522810,-0.1565919900,-0.1924961412,-0.1638066589,0.8250687500,0.9508587771,9.7138092944
1520503195948539810,-0.1538300160,-0.2036099192,-0.1482046081,0.8575380783,0.9760381972,9.7006851182
1520503195953556810,-0.1482978586,-0.2100590050,-0.1331132137,0.8587406460,1.0299994226,9.7598901346
1520503195958570810,-0.1415111868,-0.2179645210,-0.1180352684,0.9453255213,1.0659668918,9.7566880024
1520503195963587810,-0.1317042168,-0.2206159214,-0.1058989131,0.9669717402,1.0935454356,9.7273968177
1520503195968602810,-0.1183763815,-0.2221040475,-0.0924074700,1.0499489123,1.1151235007,9.7405138482
1520503195973619810,-0.0954894211,-0.2154252949,-0.0804947915,1.0860259437,1.1498957632,9.6936430275
1520503195978636810,-0.0907134418,-0.2212817088,-0.0691851933,1.0776079697,1.1175196274,9.6960808230
1520503195983650810,-0.0786383097,-0.2172216378,-0.0602484582,1.0800131052,1.1055280358,9.7065284018
1520503195988667810,-0.0610265900,-0.2049904360,-0.0550473873,1.0475437769,1.0899417392,9.6464281541
1520503195993682810,-0.0471832118,-0.1930571945,-0.0479477173,1.0583668863,1.0467718410,9.6022034346
1520503195998699810,-0.0360995849,-0.1761642148,-0.0435105798,1.0559617509,1.0143952369,9.5732048180
1520503196003715810,-0.0222488481,-0.1545963447,-0.0433717413,1.0295052612,0.9436480124,9.5479641533
1520503196008730810,-0.0126702816,-0.1339079441,-0.0418789082,1.0427335061,0.9124693311,9.4432728446
1520503196013746810,-0.0066076562,-0.1120575691,-0.0395590110,1.0210872872,0.8369251703,9.3947471579
1520503196018764810,0.0012112500,-0.0904898767,-0.0402206088,1.0054539070,0.7877616306,9.3461372205
1520503196023778810,0.0072762982,-0.0657205573,-0.0397723020,1.0078590424,0.7457915284,9.3798569119
1520503196028795810,0.0133387119,-0.0409424968,-0.0425705460,1.0210872872,0.7110154259,9.3402491727
1520503196033811810,0.0153781411,-0.0190856844,-0.0432191860,1.0246949904,0.6846340556,9.2995647446
1520503196038827810,0.0156566280,0.0004349921,-0.0422590684,1.0415309384,0.6390654082,9.2332031033
1520503196043842810,0.0141807746,0.0234515938,-0.0412690066,1.0535566155,0.5934971356,9.2226711920
1520503196048859810,0.0101906589,0.0461787400,-0.0413586843,1.0271001258,0.6282742684,9.2194083606
1520503196053875810,0.0034331275,0.0648174072,-0.0384983463,1.0018462038,0.6162848310,9.2487194590
1520503196058890810,-0.0040856434,0.0796750644,-0.0383709673,0.9789974173,0.5923038021,9.2245602188
1520503196063908810,-0.0113602858,0.0895807400,-0.0388229392,0.9645666047,0.5671229771,9.1747530456
1520503196068924810,-0.0229038014,0.1000594981,-0.0362865258,0.9886179590,0.5539305592,9.1989368302
1520503196073939810,-0.0347029714,0.1073329280,-0.0337740996,0.9669717402,0.5083649090,9.2549748659
1520503196078955810,-0.0482551214,0.1178050711,-0.0290695852,0.9645666047,0.4855814283,9.2213183188
1520503196083972810,-0.0643236037,0.1256530404,-0.0241098655,0.9801999850,0.4735888065,9.2386100058
1520503196088986810,-0.0844157292,0.1305819470,-0.0178121796,1.0018462038,0.4496043121,9.2895570355
1520503196094002810,-0.0992290425,0.1355078222,-0.0096304736,0.9994410684,0.4532019207,9.2895769376
1520503196099019810,-0.1185678047,0.1380972067,-0.0001054218,0.9838076881,0.4400125936,9.3211198529
1520503196104035810,-0.1399176633,0.1395173518,0.0104966551,0.9862128236,0.4280210021,9.3501617350
1520503196109049810,-0.1607677900,0.1365567279,0.0248520947,1.0487463446,0.4232195701,9.4181242427
1520503196114067810,-0.1823703626,0.1341763924,0.0400250184,1.0836208083,0.4627884879,9.4700426858
1520503196119083810,-0.2057326465,0.1300412330,0.0573522378,1.0812156729,0.4939663262,9.5072242997
1520503196124098810,-0.2250725182,0.1282438242,0.0727959531,1.0643797249,0.5467298161,9.5584710535
1520503196129114810,-0.2451632560,0.1267287634,0.0914898423,1.0295052612,0.5611222173,9.6017957944
1520503196134131810,-0.2630027678,0.1202734351,0.1055424584,1.0295052612,0.6150835364,9.6168510455
1520503196139148810,-0.2795854758,0.1146956663,0.1185172265,1.0174795841,0.6186818943,9.6006945727
1520503196144162810,-0.2939053966,0.1091151414,0.1328405236,1.0271001258,0.6438630939,9.6145221036
1520503196149179810,-0.3052115309,0.1038344669,0.1444549841,1.0307078289,0.6522567958,9.5993709316
1520503196154195810,-0.3117443126,0.0956330766,0.1592848968,1.0535566155,0.6162808036,9.5666435850
1520503196159210810,-0.3167691680,0.0880172314,0.1733048176,1.0715951312,0.6006905732,9.5885639457
1520503196164226810,-0.3172723107,0.0812867815,0.1838059101,1.0451386415,0.6138831784,9.6666722392
1520503196169243810,-0.3155143833,0.0728030832,0.1964538306,1.0102641778,0.6078901924,9.6821254039
1520503196174259810,-0.3109890442,0.0669443854,0.2085755332,1.0042513393,0.6174837841,9.6589316954
1520503196179275810,-0.3006830833,0.0619635626,0.2201520787,1.0583668863,0.6162804290,9.6363254020
1520503196184291810,-0.2881156524,0.0569843543,0.2314538777,1.0210872872,0.6006945069,9.6169470130
1520503196189307810,-0.2773107868,0.0502597918,0.2413928758,1.0715951312,0.5599197988,9.5944144230
1520503196194322810,-0.2652500897,0.0420744284,0.2529417002,1.0463412092,0.5755105912,9.5911585959
1520503196199339810,-0.2509293731,0.0333100957,0.2633996943,1.0559617509,0.5347390675,9.5666996900
1520503196204355810,-0.2358539251,0.0248359861,0.2743996032,1.0896336469,0.5155501982,9.5187427557
1520503196209370810,-0.2217847740,0.0149016463,0.2864724471,1.0920387823,0.4831732195,9.5094537661
1520503196214388810,-0.2084761997,0.0026475898,0.2942001722,1.0740002666,0.4531961138,9.5282528787
1520503196219403810,-0.1944131095,-0.0078520368,0.2997754684,1.0126693132,0.4364129245,9.5428119348
1520503196224419810,-0.1783427494,-0.0195113147,0.3034443172,1.0042513393,0.4172273334,9.5452368675
1520503196229435810,-0.1647748198,-0.0238891494,0.3079850481,0.9838076881,0.3896486959,9.4989769901
1520503196234450810,-0.1519600379,-0.0273916689,0.3119927567,0.9922256621,0.3836523381,9.4524151432
1520503196239467810,-0.1353729078,-0.0265117457,0.3122391681,0.9898205267,0.3932456488,9.4396456151
1520503196244483810,-0.1167711647,-0.0230107594,0.3133134912,0.9838076881,0.4268220490,9.4210770957
1520503196249500810,-0.0984208067,-0.0189241888,0.3133105436,1.0307078289,0.4424072217,9.3776060707
1520503196254516810,-0.0815771832,-0.0130855311,0.3117004594,1.0367206675,0.4711861236,9.3566008901
1520503196259530810,-0.0647310506,-0.0049136120,0.3092965223,1.1052670271,0.4867696105,9.3024598786
1520503196264547810,-0.0461264417,0.0029683403,0.3066165491,1.1148875688,0.4927645633,9.2837660882
1520503196269563810,-0.0262664834,0.0096837899,0.3044664418,1.1329260845,0.4915640180,9.2870781136
1520503196274579810,-0.0081578741,0.0219341278,0.3026323860,1.2207135276,0.4855614787,9.2757701956
1520503196279595810,0.0119585266,0.0309741962,0.3029345097,1.2688162361,0.5035448387,9.2125286797
1520503196284611810,0.0303122718,0.0373911146,0.3032198927,1.3397677312,0.4699633809,9.2269786943
1520503196289627810,0.0491653098,0.0394287209,0.3067175467,1.4203397679,0.4004069611,9.1809386629
1520503196294643810,0.0675139859,0.0385450006,0.3128993622,1.4936963984,0.3860115628,9.1593200954
1520503196299659810,0.0861173912,0.0396988852,0.3199079103,1.4912912630,0.3776177671,9.1512166832
1520503196304674810,0.1024593657,0.0390948354,0.3301538712,1.5261657267,0.3584288042,9.0823294527
1520503196309690810,0.1157829826,0.0364499124,0.3403898711,1.5369888361,0.3356442932,9.1031649158
1520503196314707810,0.1341376334,0.0367171617,0.3519914969,1.5141400495,0.3320486515,9.0499321980
1520503196319723810,0.1492215692,0.0331907616,0.3651935654,1.5129374818,0.3536332728,9.0557335747
1520503196324739810,0.1600302140,0.0276244529,0.3778469148,1.4780630182,0.3944067633,9.0478982561
1520503196329755810,0.1728494730,0.0235216819,0.3883432787,1.4708476119,0.3908099040,9.0433234187
1520503196334771810,0.1829061541,0.0182413634,0.4028940726,1.4973041016,0.3980026860,9.0837339298
1520503196339788810,0.1934693454,0.0147044499,0.4193510928,1.4672399087,0.4135938530,9.1014435141
1520503196344802810,0.2010135636,0.0088360071,0.4355253832,1.4744553150,0.4291821166,9.0420887407
1520503196349819810,0.2093178372,0.0073378992,0.4520021655,1.4215423356,0.4183939738,9.0507492949
1520503196354835810,0.2168677752,0.0058409528,0.4679392563,1.4419859868,0.3608336412,9.0041206791
1520503196359850810,0.2193936263,0.0049211642,0.4852428571,1.4023012522,0.3392522044,8.9940686985
1520503196364867810,0.2266926615,0.0037155039,0.5011826377,1.3602113823,0.2996838485,8.9643012208
1520503196369883810,0.2312309732,0.0051312213,0.5171475599,1.3109061061,0.2109512973,9.0136777053
1520503196374898810,0.2335054431,0.0062604955,0.5309500924,1.3024881321,0.1366052466,9.0056971321
1520503196379916810,0.2362703771,0.0018689577,0.5390279891,1.2724239392,0.0922393925,9.0734373734
1520503196384932810,0.2418024601,0.0003959903,0.5457702531,1.2808419132,0.0394765582,9.1129197833
1520503196389948810,0.2448131572,-0.0051478754,0.5489689646,1.3048932675,0.0538643701,9.1626438402
1520503196394963810,0.2463284656,-0.0025379357,0.5538559982,1.2928675904,0.0430730429,9.2522564993
1520503196399980810,0.2463318019,-0.0028417036,0.5584530553,1.3397677312,0.0862384454,9.3168379673
1520503196404995810,0.2468387904,-0.0028560753,0.5638630398,1.4431885545,0.0790355481,9.3518648111
1520503196410010810,0.2508645349,-0.0022855711,0.5690003904,1.4936963984,0.1090101250,9.4478019134
1520503196415026810,0.2526303501,-0.0002583020,0.5738825110,1.4864809921,0.1317943550,9.5094435559
1520503196420043810,0.2546501458,0.0029309615,0.5801257868,1.5153426173,0.1725628815,9.5846622340
1520503196425060810,0.2544094830,0.0067006511,0.5869188010,1.5995223572,0.1725563253,9.5931400317
1520503196430075810,0.2531638406,0.0090057400,0.5964080257,1.5959146540,0.1389806744,9.6187750554
1520503196435092810,0.2501587143,0.0124822336,0.6034744967,1.6307891177,0.1401770987,9.7230273953
1520503196440107810,0.2456473357,0.0174165161,0.6100137917,1.6199660083,0.1869444182,9.7196007047
1520503196445124810,0.2408878691,0.0243889349,0.6171102067,1.5598376226,0.1737585565,9.7806303058
1520503196450139810,0.2328528968,0.0258274099,0.6228177211,1.5442042424,0.1773571954,9.8040218426
1520503196455156810,0.2228044092,0.0246411796,0.6290500533,1.5490145132,0.1701619782,9.8028198945
1520503196460170810,0.2127488845,0.0190878236,0.6338963098,1.5826864092,0.1545705302,9.8036694983
1520503196465188810,0.2014265315,0.0077142975,0.6357244332,1.6392070917,0.1389773027,9.8356745928
1520503196470204810,0.1908640967,-0.0013373266,0.6410860379,1.6488276334,0.0670281280,9.8588939917
1520503196475220810,0.1790405926,-0.0135939443,0.6461549763,1.6584481751,0.0118669192,9.8425841255
1520503196480236810,0.1659604651,-0.0249725302,0.6496096423,1.6343968208,-0.0289019820,9.8963166061
1520503196485251810,0.1551448497,-0.0316764226,0.6487669427,1.5646478935,-0.1008449751,9.8587149092
1520503196490266810,0.1443152501,-0.0462367708,0.6438060314,1.5357862684,-0.1488083442,9.8497454525
1520503196495283810,0.1380051641,-0.0613679178,0.6350446304,1.5057220756,-0.2075638834,9.8628789601
1520503196500299810,0.1301881710,-0.0735756122,0.6225206180,1.5309759975,-0.2591288885,9.8777913069
1520503196505314810,0.1299021766,-0.0927786807,0.6118230712,1.4768604504,-0.2363410057,9.9433758784
1520503196510330810,0.1318675335,-0.1192640194,0.6005246549,1.5093297787,-0.2039667431,10.0859719761
1520503196515347810,0.1335721707,-0.1547918464,0.5926748863,1.5417991069,-0.1847830252,10.1727980267
1520503196520364810,0.1413072742,-0.1914857624,0.5858872077,1.5129374818,-0.1500057051,10.2450979624
1520503196525379810,0.1495408433,-0.2299219612,0.5769208899,1.4997092370,-0.0912467941,10.3230330653
1520503196530395810,0.1640526647,-0.2695124955,0.5646874609,1.5598376226,0.0226668632,10.4083353779
1520503196535411810,0.1838463366,-0.3058964609,0.5527392306,1.6199660083,0.1149959928,10.4808751550
1520503196540427810,0.2013819298,-0.3384882145,0.5389302796,1.6331942531,0.2145236177,10.4980815036
1520503196545443810,0.2214385560,-0.3675932957,0.5292015268,1.6861072325,0.2876670624,10.5044680151
1520503196550459810,0.2455205425,-0.3920288217,0.5173365087,1.7762998110,0.3632058846,10.5232729147
1520503196555475810,0.2701099292,-0.4103334209,0.5011885076,1.8183896809,0.4579347000,10.5611216105
1520503196560490810,0.2939557104,-0.4225257962,0.4875235045,1.8340230612,0.5274836270,10.5678744868
1520503196565507810,0.3195654252,-0.4303430722,0.4725358512,1.8412384675,0.5718512607,10.6560839314
1520503196570523810,0.3517236111,-0.4247424453,0.4533095906,1.8207948163,0.6018313635,10.5202828412
1520503196575540810,0.3559621953,-0.4386791524,0.4353389191,1.7702869724,0.5802507696,10.5707676917
1520503196580556810,0.3654928035,-0.4380278117,0.4112470450,1.7113611545,0.5742596568,10.5876171016
1520503196585571810,0.3853472929,-0.4239767588,0.3902143021,1.7089560190,0.5490778952,10.5562871810
1520503196590586810,0.3898613374,-0.4172119542,0.3675311768,1.6632584460,0.5526788756,10.4765405323
1520503196595603810,0.3850736362,-0.4107312506,0.3408049087,1.6752841231,0.4927209178,10.5055355476
1520503196600618810,0.3913634029,-0.3917276067,0.3182118859,1.6392070917,0.5011177106,10.4303391569
1520503196605635810,0.3863395788,-0.3750529137,0.2931871679,1.6247762791,0.4663437622,10.3828656263
1520503196610650810,0.3737767858,-0.3598446529,0.2706002493,1.6235737114,0.4315687836,10.3619926510
1520503196615668810,0.3649971967,-0.3364848896,0.2513151269,1.6319916854,0.4327672684,10.3340180913
1520503196620684810,0.3521900989,-0.3166167600,0.2295758820,1.6981329096,0.4411561000,10.3182582565
1520503196625699810,0.3305881537,-0.2979248989,0.2105495391,1.7281971025,0.3859932991,10.3366137229
1520503196630716810,0.3125067640,-0.2789468307,0.1939537982,1.7823126495,0.3596079951,10.3523827362
1520503196635732810,0.2894056781,-0.2594061733,0.1841354853,1.8256050872,0.3284269723,10.3194517263
1520503196640746810,0.2620347977,-0.2389966782,0.1756845054,1.8532641446,0.3344205202,10.2982580721
1520503196645763810,0.2349189523,-0.2171359895,0.1694085414,1.9326336137,0.3116306706,10.2463734218
1520503196650779810,0.2083133533,-0.1920808006,0.1672142864,2.0288390307,0.2468695950,10.1990144035
1520503196655795810,0.1794485189,-0.1687908304,0.1709629030,2.1142213383,0.2108887324,10.1424355148
1520503196660811810,0.1480725036,-0.1428735566,0.1725718275,2.0961828226,0.1976995926,10.1356510897
1520503196665827810,0.1159447402,-0.1181344996,0.1787725400,2.0841571455,0.1761160016,10.1230056049
1520503196670843810,0.0840591684,-0.1000971882,0.1849216549,2.0877648486,0.1581286143,10.0439622409
1520503196675859810,0.0491661966,-0.0750634591,0.1895064491,2.0095979473,0.1749226681,10.0458688428
1520503196680876810,0.0165324953,-0.0514843096,0.1935348356,1.9194053688,0.1425529012,9.9956439602
1520503196685891810,-0.0163550099,-0.0287750416,0.1959337441,1.8761129311,0.1281665879,9.9368100326
1520503196690906810,-0.0515064001,-0.0060593754,0.1956313943,1.8183896809,0.1497556112,9.8908650691
1520503196695924810,-0.0881624155,0.0189867763,0.1953496294,1.8244025195,0.1389628790,9.7931969757
1520503196700939810,-0.1210530845,0.0408284466,0.1953069557,1.8460487383,0.1257706485,9.7279190860
1520503196705956810,-0.1516769675,0.0638248862,0.1995977081,1.8941514468,0.0825978469,9.6554400547
1520503196710971810,-0.1830556722,0.0856533071,0.2046926060,1.9254182074,0.0718031479,9.6353898001
1520503196715988810,-0.2091555177,0.1086493336,0.2097865951,1.9362413168,0.0082478625,9.5679420802
1520503196721002810,-0.2324964471,0.1263956942,0.2169998019,1.9735209159,-0.0073438664,9.5199465228
1520503196726020810,-0.2548272531,0.1479311759,0.2239694959,1.9903568639,-0.0265314245,9.4884234747
1520503196731035810,-0.2741458565,0.1686009698,0.2282214611,1.9578875356,-0.0061435084,9.4770981929
1520503196736052810,-0.2891930463,0.1863476657,0.2365014496,1.9675080773,-0.0253305045,9.4781854058
1520503196741066810,-0.3022347696,0.2017699004,0.2425955524,1.9518746971,-0.0157361635,9.4562474817
1520503196746084810,-0.3150257702,0.2151452577,0.2513790859,1.9759260513,0.0154396143,9.4652801294
1520503196751099810,-0.3242989794,0.2296940873,0.2577300646,2.0108005150,0.0226317407,9.4823658260
1520503196756115810,-0.3282997156,0.2381142545,0.2683532915,1.9687106450,0.0634057932,9.4234664038
1520503196761130810,-0.3328027398,0.2474112920,0.2779019376,1.9819388899,0.0897858522,9.4198254908
1520503196766148810,-0.3355438612,0.2569923906,0.2904255446,2.0336493015,0.1005740887,9.4518516801
1520503196771163810,-0.3357807526,0.2589933770,0.3047805054,2.0468775464,0.1353481307,9.4528511576
1520503196776179810,-0.3367692117,0.2615717381,0.3210351338,2.1021956612,0.1569283499,9.4604266846
1520503196781195810,-0.3364979267,0.2644325063,0.3408067484,2.0901699840,0.1893060780,9.4616743069
1520503196786211810,-0.3334636287,0.2670058868,0.3594888223,2.1118162029,0.2084906389,9.3696355341
1520503196791226810,-0.3261565018,0.2704565514,0.3776285394,2.1154239060,0.2576551153,9.4323082495
1520503196796244810,-0.3193518824,0.2747848149,0.3944231297,2.1575137760,0.3080157349,9.4306873164
1520503196801260810,-0.3120452456,0.2756028208,0.4163304815,2.1887805365,0.3176064232,9.3478614094
1520503196806275810,-0.3027322169,0.2752640890,0.4352492024,2.2272627033,0.3283956899,9.4055835213
1520503196811290810,-0.2898979703,0.2766728574,0.4549863653,2.1959959428,0.3236015633,9.4407568487
1520503196816308810,-0.2758058181,0.2804190217,0.4725746121,2.1166264737,0.3655776597,9.4461370314
1520503196821324810,-0.2614602971,0.2865000029,0.4888274475,2.0564980881,0.3799720278,9.4350868126
1520503196826340810,-0.2468715651,0.2893882360,0.5004560819,1.9999774056,0.3763790085,9.4484240418
1520503196831356810,-0.2320333769,0.2928680779,0.5088421450,1.9194053688,0.3655930199,9.4457323727
1520503196836372810,-0.2174461777,0.2972248886,0.5161531605,1.8328204935,0.3871842911,9.4326083612
1520503196841387810,-0.2008550958,0.2980917000,0.5212693981,1.8147819778,0.3739951513,9.4455803833
1520503196846403810,-0.1852691622,0.3001287548,0.5245025736,1.7787049464,0.3524134335,9.4912761973
1520503196851419810,-0.1701910599,0.2989632966,0.5266300450,1.7967434621,0.3344249222,9.5143610407
1520503196856435810,-0.1503385897,0.2969226417,0.5298241630,1.7594638630,0.3380252470,9.4961260861
1520503196861451810,-0.1327520272,0.2937243038,0.5297670385,1.7378176442,0.3008535797,9.4742922915
1520503196866467810,-0.1174246060,0.2911020214,0.5318829277,1.7582612953,0.2876614429,9.4706197364
1520503196871483810,-0.0970701026,0.2914050229,0.5304946168,1.7173739930,0.2708766614,9.4791690868
1520503196876500810,-0.0777197359,0.2934603085,0.5274982358,1.6873098002,0.2612858795,9.4411203174
1520503196881516810,-0.0633950362,0.2963906922,0.5234356750,1.6440173625,0.2492978470,9.4217969456
1520503196886532810,-0.0480636043,0.2993163707,0.5212650686,1.6187634406,0.2361092692,9.4325149101
1520503196891546810,-0.0332373615,0.3019577521,0.5163877135,1.6079403312,0.2061316016,9.3989473144
1520503196896564810,-0.0239437388,0.3022688049,0.5104206581,1.5766735706,0.2289177048,9.4015537164
1520503196901581810,-0.0123914650,0.2993711435,0.5060482237,1.5874966800,0.1857478066,9.3782475880
1520503196906596810,-0.0066178763,0.2973453712,0.5016931931,1.5466093778,0.1533741996,9.4542164891
1520503196911610810,-0.0036160079,0.2906600056,0.4959549977,1.5213554558,0.1449821835,9.4939833751
1520503196916627810,-0.0011226765,0.2796036751,0.4901843894,1.5189503204,0.0898219113,9.5196277418
1520503196921643810,-0.0003895778,0.2688431391,0.4825254500,1.4864809921,0.0634433508,9.5327530873
1520503196926660810,-0.0024219972,0.2575002078,0.4743261066,1.4311628774,0.0382657103,9.5368025079
1520503196931676810,-0.0067215241,0.2397350043,0.4701402442,1.4263526065,-0.0168943745,9.5822267319
1520503196936692810,-0.0132836225,0.2205083500,0.4673001964,1.4371757159,-0.0576659919,9.6112147428
1520503196941706810,-0.0203503886,0.1989467804,0.4657960269,1.3986935491,-0.1032303309,9.6790380888
1520503196946724810,-0.0299322091,0.1765129864,0.4632076717,1.3277420540,-0.1559869835,9.6332943799
1520503196951739810,-0.0370042011,0.1546760577,0.4557492694,1.2423597464,-0.1991493889,9.6399782549
1520503196956755810,-0.0443228266,0.1369213277,0.4472402734,1.1978647410,-0.2219295916,9.6450821353
1520503196961771810,-0.0516375788,0.1226661257,0.4376757708,1.0968490531,-0.2542985156,9.6542319399
1520503196966788810,-0.0597162950,0.1037608593,0.4234778188,1.0523540478,-0.2722821565,9.6988440373
1520503196971803810,-0.0680429620,0.0889421621,0.4066059978,1.0535566155,-0.2614899863,9.7650640136
1520503196976819810,-0.0710917852,0.0732455514,0.3918820735,1.0391258029,-0.2482983178,9.8232988092
1520503196981836810,-0.0726346619,0.0566775632,0.3763370419,1.0715951312,-0.2279154594,9.9159344103
1520503196986851810,-0.0714083745,0.0412652696,0.3648539572,1.0740002666,-0.1799500298,9.9972143034
1520503196991866810,-0.0726912530,0.0267174039,0.3566287596,1.0271001258,-0.1883403600,10.0418404562
1520503196996884810,-0.0704555480,0.0139257796,0.3459754534,1.0054539070,-0.1415721976,10.1373013473
1520503197001901810,-0.0652029868,-0.0000396709,0.3388247508,0.9405152505,-0.1583551059,10.2134891481
1520503197006917810,-0.0627156811,-0.0148810864,0.3319430589,0.8154482083,-0.1715359099,10.2705022465
1520503197011930810,-0.0599735130,-0.0270999428,0.3250809079,0.6362656191,-0.1931064822,10.2536730447
1520503197016948810,-0.0564774444,-0.0378550253,0.3157935592,0.4907549258,-0.2050865536,10.2202367313
1520503197021964810,-0.0522362649,-0.0500441537,0.2981067721,0.3380288263,-0.2362523098,10.2066458049
1520503197026980810,-0.0517632388,-0.0578486939,0.2747788683,0.1961258361,-0.2494318025,10.2254720236
1520503197031995810,-0.0523041153,-0.0706006091,0.2489801259,0.1480231276,-0.2722117242,10.1620445258
1520503197037011810,-0.0508378511,-0.0836336515,0.2196583299,0.0566279814,-0.3285642059,10.1862319481
1520503197042027810,-0.0488630107,-0.0940520490,0.1933316132,0.0265637886,-0.3261635836,10.2260351303
1520503197047044810,-0.0448852088,-0.1076646907,0.1631890661,0.0446023043,-0.3033813204,10.2060808898
1520503197052060810,-0.0381409714,-0.1224541708,0.1376317730,0.0289689240,-0.3069775241,10.2666680492
1520503197057076810,-0.0311400721,-0.1349197605,0.1147972569,0.0397920335,-0.2566144693,10.3687822594
1520503197062090810,-0.0221306796,-0.1508906465,0.0954494265,0.0674510909,-0.2278372533,10.4056735855
1520503197067107810,-0.0103568315,-0.1694952935,0.0806757347,0.1420102891,-0.2074576730,10.5037102293
1520503197072124810,0.0041872745,-0.1884113666,0.0737405168,0.0782742003,-0.2098509899,10.5728994293
1520503197077140810,0.0230099254,-0.2035421377,0.0684495401,-0.0323620293,-0.1858595647,10.6192765219
1520503197082156810,0.0433315718,-0.2244970948,0.0620291178,-0.0876801441,-0.1390887798,10.6802008359
1520503197087172810,0.0656736726,-0.2422649737,0.0626636089,-0.1273648786,-0.1163020210,10.7107806281
1520503197092187810,0.0900232158,-0.2623638697,0.0635471274,-0.1886958320,-0.0479462402,10.7147973655
1520503197097203810,0.1123670297,-0.2798447346,0.0658071170,-0.2524319208,-0.0155644848,10.7095754416
1520503197102220810,0.1332098683,-0.2929583361,0.0691854368,-0.2993320616,-0.0083659895,10.6798091799
1520503197107236810,0.1545544734,-0.3048981899,0.0695957106,-0.3005346293,-0.0227555810,10.6135927117
1520503197112251810,0.1771596225,-0.3130459104,0.0686798214,-0.3582578795,-0.0347424895,10.5467618984
1520503197117268810,0.1947438052,-0.3194560340,0.0710331560,-0.3618655827,-0.0359413490,10.5154202962
1520503197122283810,0.2108274987,-0.3203297138,0.0731609836,-0.3823092338,-0.1198795864,10.4645668019
1520503197127300810,0.2254007256,-0.3194389234,0.0690823945,-0.3859169369,-0.1294724288,10.4041797862
1520503197132315810,0.2339500764,-0.3159404184,0.0696342947,-0.3690809889,-0.1306728804,10.4016927968
1520503197137331810,0.2415001674,-0.3095350179,0.0726452057,-0.3293962544,-0.1318751116,10.4652256168
1520503197142347810,0.2447674442,-0.3107058320,0.0750651590,-0.2452165145,-0.1510679146,10.5085864425
1520503197147363810,0.2445127503,-0.3159632352,0.0796248905,-0.1429982589,-0.0971145567,10.5296196276
1520503197152380810,0.2432607724,-0.3183202988,0.0890785457,-0.0816673055,-0.0791322270,10.4929786670
1520503197157396810,0.2369857582,-0.3212744839,0.1031363696,-0.0059055396,-0.0707441446,10.4538823126
1520503197162411810,0.2304666588,-0.3195695287,0.1183124131,-0.0047029719,-0.0791382212,10.4829323918
1520503197167428810,0.2257038794,-0.3199035760,0.1334696279,0.0037150021,-0.0947277023,10.3852455656
1520503197172444810,0.2181874216,-0.3103221628,0.1451904649,-0.0083106751,-0.1175104338,10.3319262118
1520503197177459810,0.2099170712,-0.2992775665,0.1544889045,-0.1009083890,-0.1594731368,10.3444898675
1520503197182476810,0.2011497176,-0.2815196680,0.1595106741,-0.1069212275,-0.1678666514,10.2597200695
1520503197187491810,0.1908781779,-0.2614327410,0.1650941206,-0.1153392015,-0.2410135616,10.1517939469
1520503197192507810,0.1806069949,-0.2392981094,0.1677171238,-0.1502136652,-0.2805824795,10.1510098377
1520503197197524810,0.1710891791,-0.2180395214,0.1711436953,-0.1045160921,-0.3273525151,10.0855305884
1520503197202540810,0.1585563497,-0.1961986174,0.1743097677,-0.0600210867,-0.3405465252,10.1071910992
1520503197207556810,0.1452698826,-0.1761150571,0.1807104525,-0.0540082481,-0.3513392573,10.0722787793
1520503197212571810,0.1327319410,-0.1612819503,0.1892340888,-0.0359697325,-0.3489423813,10.0256151066
1520503197217587810,0.1184344293,-0.1446917560,0.1942572340,-0.0395774356,-0.3501412408,10.0535428460
1520503197222604810,0.1056492779,-0.1278234266,0.2044201740,-0.0407800033,-0.3561368492,10.0268310868
1520503197227620810,0.0911074967,-0.1097931620,0.2156774570,-0.0467928419,-0.3645303639,10.0176006459
1520503197232636810,0.0763122643,-0.0920485529,0.2247686164,-0.0479954096,-0.3357509001,9.9827199681
1520503197237651810,0.0607682359,-0.0716868775,0.2357750050,-0.0876801441,-0.2841847711,9.9214623238
1520503197242667810,0.0444719420,-0.0489893222,0.2449067573,-0.0924904150,-0.2218290944,9.9098268989
1520503197247683810,0.0309471055,-0.0213386038,0.2546122598,-0.0660339253,-0.2709959123,9.8631315724
1520503197252700810,0.0133951564,0.0031118654,0.2618658629,-0.1033135244,-0.2745904301,9.8390929141
1520503197257716810,-0.0018942643,0.0293166269,0.2672347827,-0.0660339253,-0.2602036485,9.7713116759
1520503197262732810,-0.0186871263,0.0572625489,0.2750547544,-0.1225546078,-0.3093640038,9.7265861423
1520503197267748810,-0.0342216046,0.0857880901,0.2842295682,-0.1923035351,-0.3225491162,9.6726571324
1520503197272764810,-0.0530366459,0.1058694844,0.2906405209,-0.2644575979,-0.2613873350,9.4013581142
1520503197277779810,-0.0743778246,0.1183833660,0.2934812440,-0.0455902742,-0.3801192830,9.6306102055
1520503197282796810,-0.0670253659,0.1611978938,0.3019108795,-0.0780596024,-0.3393459798,9.4402948759
1520503197287812810,-0.0926407457,0.1687412677,0.3104032083,0.0097278406,-0.3813227318,9.4801563721
1520503197292827810,-0.0956288104,0.1815274976,0.3229517359,0.0097278406,-0.3825218722,9.3964831767
1520503197297844810,-0.1132090610,0.1806071169,0.3375872156,0.0025124344,-0.4160972421,9.4070454442
1520503197302859810,-0.1240155890,0.1732876760,0.3489146352,0.0433997366,-0.3993124607,9.2869302742
1520503197307875810,-0.1393421948,0.1688824935,0.3594610490,0.0530202783,-0.4568719503,9.2357584281
1520503197312890810,-0.1456271002,0.1615706523,0.3686157004,0.0650459554,-0.4736608528,9.1101462012
1520503197317909810,-0.1619649231,0.1548434693,0.3756290998,0.0337791949,-0.5120309112,9.1116500955
1520503197322924810,-0.1740318107,0.1469509651,0.3831667643,0.0313740595,-0.5240221281,9.0210379705
1520503197327941810,-0.1860938448,0.1478233066,0.3821136527,-0.0035004042,-0.5480022204,8.9226185679
1520503197332955810,-0.1958985371,0.1484182614,0.3761842913,-0.0155260813,-0.5863737774,8.8135315056
1520503197337973810,-0.2066996313,0.1533741206,0.3738072398,0.0121329761,-0.6283458464,8.7854117613
1520503197342987810,-0.2149829817,0.1632910573,0.3690284005,0.0349817626,-0.6499321535,8.7224546398
1520503197348004810,-0.2235207124,0.1702911365,0.3653099806,0.0193483823,-0.6607231998,8.6877530109
1520503197353020810,-0.2307971503,0.1819589594,0.3597309751,0.0373868980,-0.6763134302,8.6457554541
1520503197358035810,-0.2360660948,0.1939298810,0.3500922706,0.0349817626,-0.7086900343,8.6609183078
1520503197363051810,-0.2433473745,0.2012232938,0.3458326483,0.0530202783,-0.7290768264,8.6351954437
1520503197368068810,-0.2471102079,0.2082245153,0.3423759066,0.1155537994,-0.7506662243,8.6601749959
1520503197373083810,-0.2503807426,0.2061864574,0.3412842288,0.1456179922,-0.7698548126,8.6110910328
1520503197378100810,-0.2564298190,0.1936574735,0.3401176539,0.2057463779,-0.8238208146,8.6942327650
1520503197383115810,-0.2496465579,0.1910318436,0.3422494118,0.2201771904,-0.7842503046,8.6650001173
1520503197388132810,-0.2504113297,0.1799450960,0.3473067067,0.2382157061,-0.8022388158,8.6938956804
1520503197393147810,-0.2464014707,0.1676895819,0.3542400629,0.2646721958,-0.8418125103,8.5890838014
1520503197398164810,-0.2428960128,0.1542690613,0.3608949142,0.2586593572,-0.8286214974,8.5008065235
1520503197403180810,-0.2348700771,0.1396891453,0.3659091968,0.3272057169,-0.8130380105,8.5361505964
1520503197408195810,-0.2298529999,0.1285981063,0.3733906702,0.2947363886,-0.8082389200,8.4853276216
1520503197413212810,-0.2213157592,0.1189653683,0.3808767249,0.3404339617,-0.7854588110,8.4523205813
1520503197418228810,-0.2137827025,0.1099142772,0.3886396385,0.3211928783,-0.7770633295,8.5222283141
1520503197423243810,-0.2034829828,0.1026125761,0.3964107567,0.2959389563,-0.7638708180,8.5108398180
1520503197428260810,-0.1964460981,0.0991012362,0.4028641130,0.2995466595,-0.7626719585,8.5084792456
1520503197433276810,-0.1838788358,0.0967568720,0.4095866395,0.2839132792,-0.7518784771,8.4981615917
1520503197438292810,-0.1740773543,0.0941236824,0.4149593474,0.3067620657,-0.7794604864,8.5130739618
1520503197443306810,-0.1650224224,0.0967343905,0.4206440170,0.2754953052,-0.7782589108,8.5505657305
1520503197448323810,-0.1534510680,0.1028470681,0.4247274210,0.2791030083,-0.8046402811,8.5726370759
1520503197453340810,-0.1393660195,0.1101291820,0.4277328664,0.2514439509,-0.8382140588,8.5775876095
1520503197458357810,-0.1265405859,0.1162503646,0.4288379319,0.2875209823,-0.8190306218,8.5353805660
1520503197463371810,-0.1109539426,0.1209193497,0.4285740186,0.3103697689,-0.8178332609,8.5456162962
1520503197468388810,-0.0948674774,0.1220853615,0.4307174078,0.3644853160,-0.8142400544,8.5578696441
1520503197473404810,-0.0795357907,0.1217905132,0.4342038112,0.4149931599,-0.8130448477,8.6119976283
1520503197478420810,-0.0672172280,0.1226571078,0.4387868913,0.4462599204,-0.7878653339,8.6012094451
1520503197483435810,-0.0496183594,0.1238084133,0.4466089440,0.4739189778,-0.7746769435,8.7008717461
1520503197488452810,-0.0332838101,0.1214728102,0.4506190107,0.4991728998,-0.7530943827,8.7296584907
1520503197493467810,-0.0172008262,0.1179672000,0.4562439272,0.5340473635,-0.7219194478,8.7827472631
1520503197498484810,-0.0046359788,0.1156308485,0.4599904489,0.5340473635,-0.7111271840,8.8385196489
1520503197503499810,0.0071784886,0.1147460253,0.4656433075,0.4955651967,-0.7195181699,8.9260631926
1520503197508515810,0.0227605018,0.1121129148,0.4718169185,0.4691087070,-0.6955333009,8.9611616357
1520503197513531810,0.0355773066,0.1097744765,0.4763746111,0.4739189778,-0.6739491479,8.9878230783
1520503197518548810,0.0478808738,0.1022025747,0.4765644874,0.4354368110,-0.6763444316,9.0033078502
1520503197523562810,0.0596872025,0.0954907894,0.4819023383,0.4161957276,-0.6703472309,9.0743800656
1520503197528580810,0.0724960018,0.0879103433,0.4853378319,0.4173982953,-0.6883344309,9.1673574170
1520503197533596810,0.0855550454,0.0800407964,0.4879589979,0.4306265402,-0.7111191293,9.1416837118
1520503197538612810,0.0955982834,0.0721707965,0.4903152187,0.4558804621,-0.7195150791,9.1890939931
1520503197543627810,0.1079068648,0.0678019392,0.4913411866,0.4186008630,-0.7315035798,9.2708186201
1520503197548644810,0.1174515158,0.0654797033,0.4894118452,0.3921443734,-0.7446920640,9.3594119346
1520503197553660810,0.1285082291,0.0669489708,0.4864264199,0.4558804621,-0.7267099216,9.3959626330
1520503197558675810,0.1410736607,0.0695865523,0.4826354490,0.4198034308,-0.6979277417,9.4520686304
1520503197563691810,0.1506191938,0.0687248812,0.4793644935,0.4378419465,-0.6763446189,9.5018441965
1520503197568708810,0.1611670642,0.0664095950,0.4749983721,0.4655010038,-0.6919355986,9.5887509781
1520503197573724810,0.1671970522,0.0670012829,0.4725567038,0.4835395195,-0.6523653695,9.6849947623
1520503197578739810,0.1744847182,0.0670041381,0.4725431689,0.5352499312,-0.6343822906,9.7402568146
1520503197583755810,0.1790037455,0.0652641590,0.4700865163,0.5629089886,-0.6259904618,9.8178430578
1520503197588772810,0.1805072691,0.0614738372,0.4711369994,0.5701243949,-0.5900168110,9.9095471197
1520503197593787810,0.1802519205,0.0576820977,0.4724612955,0.5532884469,-0.5816215168,9.9515399875
1520503197598804810,0.1754735419,0.0530093334,0.4756811446,0.5448704729,-0.5720277378,10.0259897812
1520503197603820810,0.1669277508,0.0506698107,0.4775730498,0.5196165509,-0.5072721881,10.0505774661
1520503197608834810,0.1548596400,0.0451229514,0.4797175811,0.4919574935,-0.5072700339,10.1635746460
1520503197613851810,0.1468227350,0.0462751409,0.4835290511,0.4486650559,-0.5156606451,10.1895713804
1520503197618869810,0.1332478388,0.0398462529,0.4883751724,0.4570830299,-0.4772888072,10.1999113217
1520503197623883810,0.1151476348,0.0345927858,0.4889098527,0.3969546442,-0.4353142094,10.2748328607
1520503197628900810,0.1010700077,0.0275787465,0.4945640990,0.3620801805,-0.3837484550,10.3669313982
1520503197633915810,0.0854870927,0.0214338996,0.5018510902,0.3211928783,-0.3885418323,10.4021983661
1520503197638932810,0.0671343472,0.0112085862,0.5091120922,0.3500545034,-0.3549681483,10.4367490219
1520503197643946810,0.0527996151,0.0004086350,0.5139262674,0.3428390971,-0.3117985311,10.4576957472
1520503197648964810,0.0397247213,-0.0077676348,0.5184875709,0.3043569303,-0.3201895169,10.5068885404
1520503197653980810,0.0276550188,-0.0174069892,0.5254708051,0.3103697689,-0.2962071768,10.5021580525
1520503197658995810,0.0170954459,-0.0235411259,0.5295019111,0.3103697689,-0.2974063172,10.5521314119
1520503197664012810,0.0110598674,-0.0293828343,0.5337973851,0.3248005814,-0.3177928283,10.5950101563
1520503197669028810,0.0047718924,-0.0352209990,0.5367405963,0.3813212639,-0.3309877750,10.6595529428
1520503197674044810,0.0025145938,-0.0352364537,0.5421557147,0.4222085662,-0.3273935381,10.6382328717
1520503197679060810,0.0000036245,-0.0355368355,0.5451341638,0.4354368110,-0.3501782364,10.6590449247
1520503197684076810,-0.0002431894,-0.0332102283,0.5467756905,0.4606907330,-0.3789595735,10.6692864782
1520503197689092810,0.0045418226,-0.0273886799,0.5497872894,0.5460730406,-0.3633773978,10.6940073848
1520503197694107810,0.0070613188,-0.0238969084,0.5519736663,0.6098091294,-0.3573866597,10.7189483371
1520503197699124810,0.0103416153,-0.0166226702,0.5563519104,0.6290502128,-0.4017563539,10.7548307844
1520503197704140810,0.0168889259,-0.0102256763,0.5623406932,0.6326579159,-0.3969600732,10.7640881435
1520503197709155810,0.0239400260,-0.0014908533,0.5659114141,0.6398733222,-0.3885666522,10.8302519331
1520503197714173810,0.0322466480,0.0049061014,0.5721674757,0.6254425097,-0.4473234090,10.9059890485
1520503197719187810,0.0415539333,0.0078061072,0.5786655393,0.5220216864,-0.4413196521,10.9255841399
1520503197724204810,0.0521169718,0.0127579518,0.5808480966,0.4354368110,-0.4593000150,11.0182538164
1520503197729219810,0.0661903688,0.0142247586,0.5792098001,0.3500545034,-0.3897432206,11.1224478657
1520503197734235810,0.0784964960,0.0116202339,0.5742970968,0.2574567895,-0.3441686727,11.1825740618
1520503197739251810,0.0913030607,0.0058033920,0.5720644650,0.1107435285,-0.3237718589,11.2839265800
1520503197744267810,0.1043547261,-0.0026270709,0.5665648080,-0.0167286490,-0.2518135056,11.3083400347
1520503197749284810,0.1168954865,-0.0142498489,0.5561718044,-0.1442008266,-0.1594697650,11.3513279139
1520503197754299810,0.1289351860,-0.0258779227,0.5476735555,-0.2404062437,-0.0947086894,11.3591740378
1520503197759314810,0.1381989430,-0.0447858653,0.5369604962,-0.3390167961,0.0012302246,11.3983910558
1520503197764331810,0.1477131599,-0.0654471157,0.5281274530,-0.3979426141,0.0923694862,11.3802814305
1520503197769347810,0.1552199774,-0.0840701904,0.5195842511,-0.4147785620,0.1559252398,11.4466255317
1520503197774364810,0.1587073309,-0.1026992110,0.5126717921,-0.4352222132,0.2362692404,11.4432597401
1520503197779379810,0.1632044156,-0.1163670165,0.5030897997,-0.4436401871,0.2962269172,11.3782031471
1520503197784396810,0.1649376524,-0.1300373618,0.4940540331,-0.4207914006,0.3381950525,11.3651562406
1520503197789412810,0.1616524749,-0.1399296902,0.4880325059,-0.4015503172,0.3693712049,11.4067757393
1520503197794427810,0.1571192558,-0.1416550029,0.4788290079,-0.3738912598,0.3885552975,11.3600020554
1520503197799443810,0.1483190610,-0.1393011491,0.4691234757,-0.3582578795,0.3885540800,11.3296341468
1520503197804460810,0.1407845106,-0.1305378003,0.4600056095,-0.2380011082,0.4293154884,11.3144781562
1520503197809475810,0.1287305369,-0.1203258570,0.4533421728,-0.1814804257,0.4544930352,11.3499299250
1520503197814491810,0.1121552072,-0.1089516045,0.4472371212,-0.1562265037,0.4880670002,11.3147870587
1520503197819507810,0.0948300269,-0.0952494850,0.4422334381,-0.0900852795,0.4952566915,11.3292441360
1520503197824524810,0.0777536364,-0.0838805285,0.4380231413,-0.0059055396,0.5588045777,11.3632271257
1520503197829540810,0.0551466487,-0.0736778193,0.4332731283,0.0337791949,0.5851825762,11.4313816266
1520503197834556810,0.0335434880,-0.0661044613,0.4312066995,0.0181458146,0.6403442533,11.4768036170
1520503197839572810,0.0114339858,-0.0629093525,0.4318133169,0.0638433877,0.6547303793,11.5495598619
1520503197844587810,-0.0129448586,-0.0643729116,0.4307652900,0.0530202783,0.7134891030,11.5647157812
1520503197849604810,-0.0358139303,-0.0643789573,0.4297255783,0.0145381115,0.7398731894,11.5743617691
1520503197854620810,-0.0619523565,-0.0684758644,0.4324484533,-0.0095132428,0.7146931137,11.5467289715
1520503197859634810,-0.0860855749,-0.0731401842,0.4297522304,-0.0672364930,0.7242907328,11.5112549969
1520503197864651810,-0.1071983696,-0.0748923911,0.4281548212,-0.1201494724,0.6943163433,11.4571784870
1520503197869668810,-0.1298157895,-0.0743141124,0.4265779971,-0.2007215091,0.6283698952,11.3824876824
1520503197874684810,-0.1516808027,-0.0725598023,0.4212210226,-0.2849012490,0.6331730131,11.2182779175
1520503197879700810,-0.1735431265,-0.0667166391,0.4123780747,-0.3871195046,0.5780205147,11.1275172645
1520503197884716810,-0.1928943007,-0.0588175027,0.3978645573,-0.4304119423,0.5336556908,10.9524981750
1520503197889732810,-0.2129936083,-0.0468400067,0.3836541092,-0.4688941091,0.4892904922,10.8378637509
1520503197894747810,-0.2388746315,-0.0342732649,0.3662122911,-0.5157942499,0.4521207919,10.6710077682
1520503197899764810,-0.2577170882,-0.0202475722,0.3490390661,-0.5145916822,0.3669817281,10.5200003722
1520503197904780810,-0.2753003653,-0.0035960127,0.3308013317,-0.5362379010,0.2902384269,10.3459643078
1520503197909795810,-0.2951457278,0.0127632762,0.3125655747,-0.5326301979,0.1991034738,10.1705343253
1520503197914811810,-0.3154978671,0.0262092513,0.2940379744,-0.5218070885,0.1595309968,9.9926595430
1520503197919828810,-0.3335897204,0.0402461658,0.2728051608,-0.4941480311,0.1043683832,9.8250953869
1520503197924843810,-0.3464020167,0.0536921809,0.2553457424,-0.5434533073,0.0360212191,9.6954818237
1520503197929860810,-0.3584650347,0.0642268313,0.2370510552,-0.5602892553,-0.0431207376,9.5748598997
1520503197934875810,-0.3690231138,0.0747715421,0.2152364711,-0.5759226356,-0.0994791199,9.4948790915
1520503197939892810,-0.3760612059,0.0864824409,0.1936947911,-0.5566815522,-0.1738273247,9.4517649833
1520503197944907810,-0.3810903657,0.0946865866,0.1761808887,-0.5302250625,-0.1990113341,9.3225340493
1520503197949924810,-0.3861297304,0.0961925303,0.1572631259,-0.5350353333,-0.2313877509,9.2552080923
1520503197954940810,-0.3899166508,0.0939073252,0.1396668588,-0.5097814114,-0.2733596326,9.2096795988
1520503197959955810,-0.3916967481,0.0875369686,0.1244706479,-0.4845274894,-0.2781581612,9.0967105064
1520503197964971810,-0.3947319361,0.0805760663,0.1119777833,-0.4568684320,-0.3081388259,9.0406876138
1520503197969988810,-0.3967621953,0.0724456491,0.1010974348,-0.4688941091,-0.3417138212,9.0024866554
1520503197975004810,-0.3983008145,0.0552781379,0.0917705127,-0.4219939683,-0.3381200527,8.8451372163
1520503197980020810,-0.4010941714,0.0381043070,0.0846102913,-0.3907272078,-0.3429190495,8.7960275161
1520503197985035810,-0.4043865193,0.0232598986,0.0780098799,-0.4039554526,-0.3920827766,8.7322862972
1520503197990052810,-0.4081863104,0.0025774046,0.0751535827,-0.4412350517,-0.3633005030,8.6454602932
1520503197995067810,-0.4097221657,-0.0154773719,0.0706898174,-0.4664889737,-0.4004718893,8.5562572645
1520503198000084810,-0.4152775673,-0.0314889330,0.0643552600,-0.4556658643,-0.4172606981,8.4724939250
1520503198005099810,-0.4205840459,-0.0492487029,0.0580068974,-0.4700966768,-0.4256535572,8.3703739031
1520503198010115810,-0.4238745472,-0.0632211430,0.0522247929,-0.4436401871,-0.4472401453,8.2748416357
1520503198015131810,-0.4299339970,-0.0798134848,0.0450750851,-0.4532607288,-0.4736204853,8.2610152742
1520503198020148810,-0.4347310995,-0.0914488836,0.0368786525,-0.4256016715,-0.5048002905,8.2375335816
1520503198025164810,-0.4387671390,-0.0995953855,0.0316835017,-0.4231965360,-0.5215884438,8.1585007533
1520503198030183810,-0.4392844147,-0.1042300545,0.0213681217,-0.4316145100,-0.5227869286,8.1202331076
1520503198035196810,-0.4395466985,-0.1071206884,0.0126888890,-0.3378142284,-0.5108028298,8.1379027231
1520503198040212810,-0.4367959955,-0.1132211981,0.0061439687,-0.2836986813,-0.4964173594,8.2024420249
1520503198045228810,-0.4335413307,-0.1181552444,-0.0006635385,-0.2500267854,-0.4424586629,8.1939266554
1520503198050243810,-0.4282736367,-0.1216337657,-0.0066520265,-0.2187600248,-0.4640456256,8.2482641378
1520503198055259810,-0.4187287191,-0.1227860929,-0.0101957509,-0.1742650194,-0.4256765975,8.3128736933
1520503198060275810,-0.4089314010,-0.1224784852,-0.0148110103,-0.1610367746,-0.3933008363,8.3371183886
1520503198065292810,-0.3978756090,-0.1207134627,-0.0194174878,-0.0720467638,-0.3681258183,8.3850377044
1520503198070308810,-0.3838028667,-0.1177809922,-0.0242912196,-0.0443877064,-0.3525391470,8.4544819239
1520503198075323810,-0.3674643420,-0.1113488359,-0.0299541126,-0.0479954096,-0.3213612150,8.4661080758
1520503198080340810,-0.3498666377,-0.1022908129,-0.0366815149,-0.0203363522,-0.2997788415,8.4797635389
1520503198085355810,-0.3307543660,-0.0885715036,-0.0428350565,0.0518177106,-0.2817973548,8.4499900965
1520503198090370810,-0.3189431367,-0.0853478062,-0.0479729106,0.1191615025,-0.2638154934,8.4644249447
1520503198095388810,-0.3013381405,-0.0751431842,-0.0476572273,0.1323897474,-0.2590199620,8.5293715731
1520503198100403810,-0.2812207244,-0.0640575967,-0.0495039092,0.1179589348,-0.2530231359,8.5539112102
1520503198105420810,-0.2651249717,-0.0544341493,-0.0500015095,0.1973284039,-0.2818086876,8.5996524988
1520503198110435810,-0.2510353402,-0.0410205770,-0.0515486594,0.2273925967,-0.2818110291,8.6783856612
1520503198115452810,-0.2324208793,-0.0270246487,-0.0522881266,0.2285951644,-0.3105904930,8.7167527708
1520503198120467810,-0.2175756813,-0.0130309256,-0.0527500469,0.1865052944,-0.3513579893,8.7811201228
1520503198125483810,-0.2017255507,0.0012567611,-0.0540232488,0.1696693465,-0.3273738695,8.7928820463
1520503198130499810,-0.1851196300,0.0175873486,-0.0563644728,0.1877078622,-0.3537563638,8.8473529618
1520503198135515810,-0.1692756543,0.0289684743,-0.0603653645,0.1925181330,-0.3657481426,8.9147221843
1520503198140531810,-0.1549382407,0.0409303215,-0.0638179179,0.2153669196,-0.4209103817,8.9575529042
1520503198145548810,-0.1395961179,0.0517233822,-0.0659285010,0.2442285447,-0.4664799656,9.0398286384
1520503198150564810,-0.1265152023,0.0622212586,-0.0669549231,0.2574567895,-0.4808706809,9.0710918017
1520503198155579810,-0.1116714979,0.0759272393,-0.0687717961,0.2911286855,-0.5312372012,9.1440282414
1520503198160595810,-0.1000987674,0.0875966189,-0.0722214386,0.2057463779,-0.5600099215,9.1913731228
1520503198165612810,-0.0900279295,0.1053924957,-0.0785976008,0.1588462370,-0.5540105666,9.3126867445
1520503198170628810,-0.0827246367,0.1199784174,-0.0836403535,0.1913155653,-0.5588096571,9.4239412049
1520503198175643810,-0.0739041811,0.1409732042,-0.0878253610,0.2189746227,-0.5576126709,9.4759672972
1520503198180659810,-0.0660942879,0.1581803268,-0.0923079477,0.1552385339,-0.5384214601,9.5927833512
1520503198185676810,-0.0623037684,0.1762592992,-0.0965058515,0.0951101483,-0.5108365474,9.6909618014
1520503198190691810,-0.0607821050,0.1908487840,-0.1037022368,0.0939075805,-0.4772605219,9.7850744253
1520503198195708810,-0.0592588146,0.2063109654,-0.1103508610,0.1131486640,-0.4436860886,9.8580694720
1520503198200724810,-0.0599988877,0.2197289269,-0.1156581168,0.0518177106,-0.3933174142,9.9632102735
1520503198205740810,-0.0625079947,0.2261544275,-0.1215565514,0.0109304084,-0.3717297021,10.0716665850
1520503198210755810,-0.0640108479,0.2343329996,-0.1290667898,-0.0022978365,-0.3441484421,10.1554428106
1520503198215772810,-0.0695339218,0.2387030583,-0.1295642674,-0.0455902742,-0.3189631214,10.2430004330
1520503198220788810,-0.0760646139,0.2401537789,-0.1281882877,-0.0985032535,-0.2817856473,10.3166942751
1520503198225803810,-0.0803421904,0.2372433589,-0.1300964055,-0.1886958320,-0.2242198825,10.3756232238
1520503198230819810,-0.0836132465,0.2372559192,-0.1352307101,-0.2836986813,-0.2002296749,10.3904702639
1520503198235835810,-0.0881508721,0.2296912611,-0.1401499355,-0.3919297755,-0.1882298412,10.4624028068
1520503198240850810,-0.0949531786,0.2200867536,-0.1453510678,-0.4448427549,-0.1174764352,10.4930645811
1520503198245867810,-0.0987398991,0.2104834275,-0.1505578008,-0.4568684320,-0.1318651837,10.4629799209
1520503198250884810,-0.1027876802,0.1956438227,-0.1590506333,-0.5338327656,-0.1510454362,10.4869906330
1520503198255900810,-0.1093449800,0.1810844198,-0.1637489330,-0.5398456042,-0.1354561424,10.4916825327
1520503198260915810,-0.1101173456,0.1709009630,-0.1695068046,-0.5999739898,-0.1654299700,10.4678919960
1520503198265932810,-0.1131554464,0.1583884577,-0.1763604440,-0.6336458858,-0.2121938240,10.4612924780
1520503198270948810,-0.1144254777,0.1534570098,-0.1847828256,-0.6420638598,-0.2949338576,10.4184557715
1520503198275963810,-0.1151901396,0.1505654505,-0.1931905791,-0.6300381827,-0.3656840792,10.3475169308
1520503198280979810,-0.1142007200,0.1459350144,-0.2048614889,-0.6456715629,-0.4556183934,10.3558918046
1520503198285995810,-0.1159707497,0.1442144269,-0.2154228503,-0.6180125055,-0.5431577985,10.2441421305
1520503198291011810,-0.1119514112,0.1465623755,-0.2210939970,-0.5350353333,-0.5887315971,10.1887581507
1520503198296028810,-0.1104426420,0.1503648052,-0.2262082692,-0.4893377602,-0.6331033519,10.2267073746
1520503198301043810,-0.1079260861,0.1544517291,-0.2286167263,-0.4472478903,-0.6750765448,10.2240143365
1520503198306060810,-0.1054031988,0.1617373268,-0.2285658164,-0.4328170777,-0.7206450048,10.2808633645
1520503198311074810,-0.0991051091,0.1733958977,-0.2287591070,-0.4207914006,-0.7362347669,10.3318958493
1520503198316092810,-0.0965805948,0.1815541922,-0.2281604360,-0.4280068069,-0.7266410815,10.4133068018
1520503198321106810,-0.0940528265,0.1914578801,-0.2264662430,-0.5133891145,-0.7326301338,10.4722509052
1520503198326123810,-0.0875044495,0.2025345088,-0.2269349923,-0.5025660051,-0.7422241001,10.5267756802
1520503198331139810,-0.0817138345,0.2130382712,-0.2311944302,-0.5590866876,-0.7038472046,10.6365299307
1520503198336155810,-0.0769290263,0.2247144621,-0.2381485679,-0.5759226356,-0.6570794168,10.6680260840
1520503198341171810,-0.0678746393,0.2369860223,-0.2491643821,-0.5723149324,-0.5923261149,10.7086028630
1520503198346187810,-0.0605842250,0.2466388032,-0.2618202123,-0.5422507396,-0.5443628395,10.7884513958
1520503198351204810,-0.0530451934,0.2551297866,-0.2758381311,-0.4785146508,-0.4652245355,10.7924024273
1520503198356219810,-0.0480329617,0.2545919641,-0.2918141196,-0.3967400463,-0.3860876365,10.8031507466
1520503198361235810,-0.0382482203,0.2479165411,-0.3002703756,-0.3113577387,-0.3657088991,10.7895162253
1520503198366251810,-0.0274615375,0.2394961185,-0.3098240205,-0.2103420508,-0.3693141878,10.8164279635
1520503198371269810,-0.0149304567,0.2205879989,-0.3200020554,-0.1634419100,-0.4196817383,10.7881291236
1520503198376283810,-0.0016556881,0.1935184942,-0.3291615532,-0.1766701549,-0.4964256952,10.6953612006
1520503198381300810,0.0141265254,0.1623705907,-0.3383568414,-0.1201494724,-0.6103484374,10.5891670504
1520503198386315810,0.0331675279,0.1251041637,-0.3473343360,-0.1766701549,-0.7110718310,10.4515202820
1520503198391330810,0.0539678418,0.0878376973,-0.3560445517,-0.2343934051,-0.7854140415,10.2871301822
1520503198396348810,0.0790349158,0.0479562715,-0.3669470767,-0.2764832750,-0.9077230866,10.1470397133
1520503198401363810,0.1038434382,0.0051718283,-0.3819295542,-0.3558527441,-1.0324275091,9.9782608410
1520503198406379810,0.1276497605,-0.0341105668,-0.3990478550,-0.3967400463,-1.1043727501,9.7776780692
1520503198411394810,0.1589961924,-0.0722230134,-0.4167123569,-0.4797172185,-1.1919035384,9.6100602065
1520503198416411810,0.1885950115,-0.1033494763,-0.4318853247,-0.5169968176,-1.2542559370,9.4001358132
1520503198421428810,0.2129159828,-0.1350615044,-0.4467823915,-0.5073762759,-1.2890317586,9.2617809530
1520503198426443810,0.2447859906,-0.1606573311,-0.4594824081,-0.5771252033,-1.3190048369,9.1183832294
1520503198431460810,0.2711301135,-0.1821664708,-0.4756581302,-0.6637100786,-1.3441800422,8.9949011465
1520503198436475810,0.2969781074,-0.1984287007,-0.4926045410,-0.7045973809,-1.3789519301,8.8953886492
1520503198441490810,0.3190644911,-0.2100353540,-0.5076145603,-0.7502949539,-1.3729526689,8.8760711474
1520503198446508810,0.3383947264,-0.2158161282,-0.5223044381,-0.8248541522,-1.3525614748,8.8012376252
1520503198451524810,0.3542185707,-0.2122710622,-0.5379988266,-0.8549183450,-1.3597539758,8.8480230258
1520503198456539810,0.3687920329,-0.2055270861,-0.5515020604,-0.8452978033,-1.3213822315,8.8316219511
1520503198461555810,0.3763361218,-0.1941258996,-0.5641450189,-0.8537157773,-1.2973987675,8.8584098107
1520503198466571810,0.3788609615,-0.1792366238,-0.5743170528,-0.8765645638,-1.2830073028,8.8714017582
1520503198471587810,0.3761084788,-0.1655200526,-0.5825943566,-0.8404875324,-1.2422393382,8.9035508796
1520503198476604810,0.3683310231,-0.1541503670,-0.5857397386,-0.7887771208,-1.2074682933,8.9088243712
1520503198481619810,0.3540184296,-0.1454129863,-0.5861875346,-0.7322564383,-1.1906847294,8.9500950451
1520503198486636810,0.3427310506,-0.1320231981,-0.5825471735,-0.6793434589,-1.1199395655,8.9355653042
1520503198491651810,0.3221445015,-0.1244873247,-0.5705470825,-0.6132022347,-1.0491954318,8.9104475120
1520503198496667810,0.2997987194,-0.1204640519,-0.5528889378,-0.5855431773,-0.9856431435,8.9310349119
1520503198501682810,0.2797160303,-0.1170299464,-0.5325339807,-0.5338327656,-0.9136987455,8.9130292748
1520503198506700810,0.2573757798,-0.1133177257,-0.5075733198,-0.5097814114,-0.7662063466,8.8766248824
1520503198511714810,0.2365318826,-0.1183479070,-0.4821410600,-0.4544632966,-0.6714785615,8.8818047917
1520503198516732810,0.2167040834,-0.1184379977,-0.4515325026,-0.3642707181,-0.5767534926,8.9342931566
1520503198521747810,0.1968755745,-0.1211600188,-0.4174268563,-0.3185731450,-0.4268644987,8.9894851069
1520503198526764810,0.1830794685,-0.1232983647,-0.3827868735,-0.2440139468,-0.3189476676,9.0107348880
1520503198531779810,0.1707991532,-0.1231210691,-0.3421798966,-0.1826829934,-0.2278177720,9.0565348185
1520503198536795810,0.1615376777,-0.1211971987,-0.3004829982,-0.1442008266,-0.0911187609,9.1118098618
1520503198541810810,0.1530293499,-0.1201486433,-0.2582530776,-0.0804647378,0.0227946154,9.1877799075
1520503198546827810,0.1543198730,-0.1202610578,-0.2163207973,0.0662485231,0.1115195802,9.2432104133
1520503198551843810,0.1568739706,-0.1162986957,-0.1724659062,0.1780873205,0.1798618739,9.2943516687
1520503198556860810,0.1639529838,-0.1123396605,-0.1267255949,0.1949232684,0.2997746050,9.2696658409
1520503198561874810,0.1654965230,-0.1107014841,-0.0855920805,0.2189746227,0.3477383488,9.3646807705
1520503198566892810,0.1725802996,-0.0988553989,-0.0470964850,0.2418234092,0.3609271139,9.3214461854
1520503198571907810,0.1849458444,-0.0817535835,-0.0118172260,0.2887235500,0.3669191633,9.3151731217
1520503198576923810,0.1932860368,-0.0663943663,0.0207507032,0.3007492272,0.3093594863,9.2976800401
1520503198581939810,0.1968489208,-0.0495648000,0.0476571517,0.3777135608,0.2290110837,9.2784149589
1520503198586954810,0.2084604124,-0.0254380003,0.0710871455,0.3801186962,0.1102959945,9.2099408201
1520503198591970810,0.2152898873,-0.0036303074,0.0893678504,0.3500545034,-0.0503864807,9.1511207963
1520503198596987810,0.2180931354,0.0179011797,0.1014312442,0.3981572119,-0.2002827801,9.0520165254
1520503198602004810,0.2203948915,0.0423557847,0.1100007057,0.3404339617,-0.3549673990,8.9655684163
1520503198607020810,0.2221849467,0.0615718272,0.1160961719,0.3512570711,-0.5072590757,8.9284229703
1520503198612033810,0.2214583676,0.0802135857,0.1186747626,0.3296108523,-0.6163791684,8.8694707295
1520503198617052810,0.2179594999,0.0950757320,0.1177124905,0.3067620657,-0.7530793971,8.7884763535
1520503198622067810,0.2142127167,0.1108046490,0.1194628133,0.2851158469,-0.8178312941,8.7724801735
1520503198627083810,0.2076916218,0.1215898726,0.1171222892,0.2863184146,-0.9317497280,8.7470123886
1520503198632098810,0.1983993321,0.1271283632,0.1150174295,0.2622670604,-1.0336747908,8.6857522540
1520503198637115810,0.1903589222,0.1312191646,0.1096525699,0.2093540810,-1.1451907291,8.6701060097
1520503198642130810,0.1792951914,0.1327001640,0.0991329312,0.1865052944,-1.2111416728,8.6506362722
1520503198647147810,0.1674702604,0.1286438336,0.0888429999,0.1059332577,-1.2770881209,8.6665926961
1520503198652164810,0.1624315033,0.1275134764,0.0750456014,0.0890973097,-1.3466369542,8.6552029490
1520503198657180810,0.1541216000,0.1255178837,0.0574599584,0.0975152837,-1.4065946310,8.6540173366
1520503198662194810,0.1435444167,0.1182713843,0.0417323217,0.0734639294,-1.4809394641,8.6810532477
1520503198667211810,0.1349754286,0.1110329570,0.0232954922,0.1023255545,-1.5097210821,8.7249618607
1520503198672227810,0.1256560606,0.1052460579,0.0067649996,0.0902998774,-1.4929321795,8.7401704120
1520503198677244810,0.1165820128,0.0968448092,-0.0127619723,0.1011229868,-1.4965304438,8.8225807952
1520503198682260810,0.1112792940,0.0893170057,-0.0314776381,0.1287820442,-1.5337059511,8.8537257152
1520503198687275810,0.1014565404,0.0844106191,-0.0504354411,0.1263769088,-1.5409006063,8.8711883007
1520503198692290810,0.0938909442,0.0760077759,-0.0691535757,0.1492256953,-1.5456989475,8.9197806280
1520503198697307810,0.0868315956,0.0696419076,-0.0867748986,0.1384025859,-1.5205161557,8.9814550470
1520503198702323810,0.0807837738,0.0664751070,-0.1019387213,0.1396051536,-1.5157196876,9.0534915897
1520503198707340810,0.0739832003,0.0644750060,-0.1176333433,0.1347948828,-1.5085244705,9.0581799697
1520503198712355810,0.0712016908,0.0607259878,-0.1325371338,0.1251743411,-1.5097228616,9.0768690828
1520503198717371810,0.0654007731,0.0561103758,-0.1506885435,0.1059332577,-1.5229119077,9.1293657044
1520503198722387810,0.0591015230,0.0538220009,-0.1674685057,0.1311871796,-1.5313078575,9.2093160164
1520503198727403810,0.0507922705,0.0488972659,-0.1793949157,0.1023255545,-1.5672798224,9.2444963366
1520503198732420810,0.0449953868,0.0422193808,-0.1891749642,0.1215666379,-1.5600864784,9.2861392220
1520503198737435810,0.0379393705,0.0340862661,-0.1997754323,0.1696693465,-1.5552936631,9.2914770621
1520503198742451810,0.0306329335,0.0259501392,-0.2092932501,0.1889104299,-1.5672865659,9.3343008009
1520503198747468810,0.0245893222,0.0210131785,-0.2163540345,0.1456179922,-1.5720797558,9.3498347317
1520503198752484810,0.0147709947,0.0128724249,-0.2245144555,0.1179589348,-1.5229128443,9.4383789456
1520503198757500810,0.0021889955,0.0050212444,-0.2323969737,0.1648590756,-1.5001328290,9.4890345650
1520503198762515810,-0.0041095645,-0.0019525927,-0.2405550365,0.1732770496,-1.4797480974,9.5377427969
1520503198767531810,-0.0096498765,-0.0071843832,-0.2462662479,0.2105566487,-1.4473742095,9.6245091645
1520503198772547810,-0.0184630949,-0.0147390602,-0.2555062733,0.2538490864,-1.3838231388,9.6402958229
1520503198777563810,-0.0355641684,-0.0220208987,-0.2590472099,0.2875209823,-1.3634403741,9.7038661200
1520503198782579810,-0.0491474111,-0.0298855848,-0.2620580350,0.3404339617,-1.3394616866,9.7463270371
1520503198787596810,-0.0589526837,-0.0328010845,-0.2628737013,0.3536622065,-1.3526532615,9.8217505012
1520503198792611810,-0.0725249767,-0.0345554367,-0.2625912909,0.3885366702,-1.3382662926,9.8469641895
1520503198797627810,-0.0891081472,-0.0325215147,-0.2628154715,0.4065751859,-1.2974969231,9.9269367890
1520503198802644810,-0.1034281777,-0.0299061228,-0.2622277687,0.4955651967,-1.2735210455,9.9516143950
1520503198807660810,-0.1154892513,-0.0310858563,-0.2586971616,0.5208191186,-1.2507393443,9.9885349779
1520503198812676810,-0.1282988152,-0.0302349348,-0.2519030421,0.5340473635,-1.2111687406,10.0627448471
1520503198817692810,-0.1383440488,-0.0296757716,-0.2445751878,0.5941757491,-1.1392249982,10.1655202459
1520503198822707810,-0.1491369807,-0.0265031842,-0.2339793748,0.5196165509,-1.1020458381,10.2568569383
1520503198827723810,-0.1576695012,-0.0250816600,-0.2220483714,0.4859446550,-1.0576750200,10.3001407406
1520503198832739810,-0.1641972569,-0.0256895703,-0.2136537600,0.3933469411,-0.9761262594,10.4148526224
1520503198837755810,-0.1674596686,-0.0277545801,-0.2047352396,0.3175851752,-0.9113667759,10.4596883669
1520503198842771810,-0.1697105926,-0.0248642023,-0.1963218855,0.2141643518,-0.8633931042,10.5129447061
1520503198847787810,-0.1691981077,-0.0219698277,-0.1889958489,0.1263769088,-0.7614593311,10.5950498582
1520503198852803810,-0.1684354177,-0.0176082341,-0.1854468061,0.0349817626,-0.6799106641,10.6574535570
1520503198857819810,-0.1628998926,-0.0126532595,-0.1851487357,-0.0083106751,-0.5923700414,10.6659245850
1520503198862834810,-0.1586196345,-0.0085809436,-0.1818789961,-0.0407800033,-0.5264147893,10.6812841792
1520503198867851810,-0.1520752171,-0.0004181601,-0.1823699763,-0.0431851387,-0.4964360914,10.7219533943
1520503198872867810,-0.1470505578,-0.0004118204,-0.1840025861,-0.0239440553,-0.4496711135,10.7356662366
1520503198877884810,-0.1412687990,-0.0012939075,-0.1802323474,-0.0347671647,-0.4065012153,10.7764045243
1520503198882899810,-0.1352317857,-0.0007255295,-0.1740165470,-0.0275517585,-0.3753241262,10.7426017164
1520503198887915810,-0.1284451884,-0.0036549272,-0.1672877320,-0.0010952688,-0.3849193102,10.7632721511
1520503198892931810,-0.1244318521,-0.0127022978,-0.1614121055,0.0818819034,-0.3885231940,10.7659544421
1520503198897947810,-0.1236894503,-0.0255425892,-0.1542065823,0.1877078622,-0.4065185424,10.7428612021
1520503198902963810,-0.1244621491,-0.0453839844,-0.1443461537,0.2742927375,-0.4460969199,10.7525163218
1520503198907979810,-0.1242337064,-0.0704801053,-0.1307399651,0.3861315348,-0.4892746855,10.7526319917
1520503198912994810,-0.1280236730,-0.0952929728,-0.1146891728,0.4847420873,-0.5132651741,10.6773183508
1520503198918011810,-0.1358302458,-0.1186577773,-0.0959143384,0.5845552074,-0.5396540372,10.6426703819
1520503198923028810,-0.1406218520,-0.1437755349,-0.0749940762,0.6699375151,-0.5492538104,10.6581186930
1520503198928043810,-0.1466603669,-0.1639497174,-0.0505165912,0.7456992810,-0.5768399407,10.6655431769
1520503198933059810,-0.1521925010,-0.1815019708,-0.0257494859,0.8322841563,-0.5660544204,10.7088513590
1520503198938075810,-0.1557050511,-0.1929372751,0.0001427539,0.9308947088,-0.5348844496,10.7159961493
1520503198943090810,-0.1556901459,-0.2017676795,0.0330826606,0.9441229536,-0.4653353353,10.7192860038
1520503198948107810,-0.1541620766,-0.2053467442,0.0638954154,0.9453255213,-0.3969844248,10.7889362837
1520503198953123810,-0.1481083860,-0.2077606839,0.0955202991,0.8767791617,-0.3034461331,10.8638894765
1520503198958139810,-0.1412960474,-0.2066777140,0.1271704598,0.8358918594,-0.2314945233,10.9455673649
1520503198963155810,-0.1302110092,-0.2038389356,0.1566616575,0.7252556298,-0.1007796004,10.9964889621
1520503198968171810,-0.1146007848,-0.1983700969,0.1840000947,0.5917706137,0.0539199105,11.1359325092
1520503198973187810,-0.0969850859,-0.1922987623,0.2043050511,0.4582855976,0.2038228596,11.2358678391
1520503198978204810,-0.0803755938,-0.1868098621,0.2243368823,0.3512570711,0.3117538335,11.3541808880
1520503198983219810,-0.0549650051,-0.1748968583,0.2406136435,0.2863184146,0.4292746526,11.4523184580
1520503198988235810,-0.0353549579,-0.1746254747,0.2508602062,0.1937207007,0.5491959068,11.5216693067
1520503198993251810,-0.0185115226,-0.1734693655,0.2567898378,0.1372000182,0.6115556108,11.5698065408
1520503198998267810,0.0018558594,-0.1682332230,0.2630146043,0.1372000182,0.6787074745,11.5860110732
1520503199003283810,0.0204497655,-0.1726090886,0.2675460008,0.1636565079,0.7290693118,11.5171379564
1520503199008298810,0.0282193451,-0.1900993061,0.2711857898,0.2370131384,0.6583143135,11.5571679774
1520503199013315810,0.0390042871,-0.2090510923,0.2769732298,0.3175851752,0.5827621916,11.4797559060
1520503199018332810,0.0437634596,-0.2274377694,0.2884577812,0.4077777536,0.4832265120,11.3453285272
1520503199023347810,0.0417342626,-0.2487431353,0.3007443410,0.4378419465,0.3501195835,11.2150055745
1520503199028363810,0.0381945010,-0.2720887837,0.3130181395,0.5460730406,0.1750366523,11.0781520003
1520503199033379810,0.0336570673,-0.2898985199,0.3253360435,0.5244268218,0.0431328916,10.9192775970
1520503199038395810,0.0230932172,-0.3027505262,0.3352680283,0.5653141240,-0.0887757394,10.7911724174
1520503199043410810,0.0130399703,-0.3103603278,0.3463212788,0.5713269626,-0.2218807947,10.6599214219
1520503199048428810,0.0014801261,-0.3141696095,0.3525364035,0.6098091294,-0.3214124470,10.6073474373
1520503199053443810,-0.0135927542,-0.3141922708,0.3587869625,0.6651272442,-0.3813737765,10.5603817135
1520503199058458810,-0.0251320985,-0.3037273528,0.3664637480,0.6843683276,-0.3933666793,10.4869910569
1520503199063476810,-0.0313906508,-0.2918085437,0.3760356689,0.6795580568,-0.4065568493,10.4312678301
1520503199068491810,-0.0426756580,-0.2781339269,0.3821131662,0.6687349473,-0.4029585851,10.4406668192
